Time (s),Quaternion W,Quaternion X,Quaternion Y,Quaternion Z,Accelerometer X (g),Accelerometer Y (g),Accelerometer Z (g),Pitch (radians),Roll (radians),Yaw (radians)
1.0482749938964844,0.9915791340120186,0.11966734299706716,-0.04950287454299851,1.9384500774906163e-18,-0.0009660531650297344,0.007680853828787804,0.969720758497715,0.23960536161452742,-0.10123193567619274,0.012196481345659656
1.1738779544830322,0.9919240423429724,0.11673885471850683,-0.04934527341655256,-0.0048787203725374085,-0.0033346673008054495,-0.0018421659478917718,0.9691775807878003,0.23420898254054903,-0.09963493240220299,0.0018940945965281214
1.2460709810256958,0.9920421050958127,0.11585299195176338,-0.048555670914642884,-0.00854188419525374,0.0013111972948536277,-0.003930250182747841,0.9684356563957408,0.23278840078112498,-0.09712769172386629,-0.005855141815573419
1.3226289749145508,0.9919871820394074,0.11652029296855852,-0.04774286454568942,-0.01024468620792888,0.003522060811519623,-0.002461414085701108,0.9657708720769733,0.23428902719905745,-0.09506976761722044,-0.00945769446260358
1.3972809314727783,0.9919737077121227,0.11696829546523131,-0.046788950860025075,-0.01083149130044134,0.0006903297617100179,0.005331043154001236,0.9643889581784606,0.23523604451866262,-0.09298402013176389,-0.010842271271756325
1.4326889514923096,0.9919827939014332,0.1168279204843178,-0.046816758107262116,-0.011377747080858017,0.0012780037941411138,0.002609719755128026,0.9686918304068968,0.235005066137946,-0.0929080407576081,-0.01196315658650069
1.4800280332565308,0.9919872436028825,0.11663611562209418,-0.047016791677111085,-0.012113935679497439,0.0008812737069092691,0.0068452563136816025,0.9685933977016248,0.23469071929667212,-0.09313844988711949,-0.013434715634131266
1.5099819898605347,0.9919909661984276,0.11631486762860788,-0.04727673836561348,-0.013772380098157897,-0.0007607414736412466,0.023785587400197983,0.9555101338773966,0.2342040327475137,-0.09327014552555803,-0.016785191124587165
1.5487589836120605,0.9919227748156626,0.11578443140996175,-0.04850148849478865,-0.018187141826064793,0.0029517461080104113,0.04686303436756134,0.9551989836618304,0.23358087887660653,-0.0947177801686558,-0.025545466619987918
1.6065009832382202,0.991789697331779,0.11437343723276348,-0.05042337242168304,-0.027006081974328456,0.004038807470351458,0.04795854166150093,0.9517493210732937,0.23165874029787764,-0.09656681080009868,-0.04320164715066236
1.6374249458312988,0.9914140698181392,0.11221197186135175,-0.053279553559083,-0.040838470236534856,0.007766611874103546,0.04191753640770912,0.9560624295845628,0.22884087167264233,-0.09922434257481001,-0.07092538493080464
1.675473928451538,0.9906430729220703,0.10960646392364079,-0.05673494975028825,-0.05825647295709142,0.009298871271312237,0.0052892547100782394,0.967143933288753,0.22568303096707285,-0.10240890825267324,-0.10586284329885817
1.7101069688796997,0.9893689412686696,0.1081150285730853,-0.0603490578786804,-0.07627639183047201,0.004855717532336712,-0.026044689118862152,0.9712914486881346,0.22503216829415215,-0.10578097534932773,-0.14192401547611758
1.9203659296035767,0.9833992964817622,0.11508637646164617,-0.07142354169360104,-0.1207459578393509,0.0031477485317736864,-0.015708738937973976,0.9754993068054318,0.246075875516326,-0.11644620268541504,-0.22992941504124256
1.9654580354690552,0.9829927310502301,0.11646230943828749,-0.07180182530292668,-0.12249978537066782,0.005119673907756805,-0.004120344761759043,0.9661784411873668,0.24912351137584945,-0.11647904777853235,-0.23335947998684697
2.0407869815826416,0.982349510220596,0.11744554200223417,-0.07235329671958496,-0.12633658130240288,-0.004469679668545723,0.006525934673845768,0.9546094429679215,0.251675348884317,-0.11639845148645254,-0.24106742421091937
2.1305699348449707,0.9814323993345079,0.11800276956284002,-0.07517161548705112,-0.13120584992747933,-0.013973820954561234,-0.017038216814398766,0.9617465191404335,0.2540741544769672,-0.12074659100643148,-0.2503593874295285
2.1504509449005127,0.9808360868862323,0.11977168357052326,-0.07691160427512346,-0.13304093997789695,-0.009511799551546574,-0.009004928171634674,0.9655853612348437,0.2582795670868507,-0.12340199668599264,-0.2535897831941261
2.2130099534988403,0.980316425246562,0.12178784506090772,-0.07772388897641216,-0.13455987546752712,-0.01579565368592739,-0.006013203412294388,0.9700719024986029,0.2627097534870636,-0.12418115244502283,-0.25639147348647173
2.243167996406555,0.9799269526313477,0.12377010041692561,-0.07769007514954973,-0.13560389146531543,-0.007069698069244623,-0.0009262619423680007,0.9752095155417919,0.2667952916944732,-0.12335973313422335,-0.25844182173982866
2.3598079681396484,0.9790241305051868,0.13028608578591772,-0.0742064651060103,-0.13795149177588967,0.00390754034742713,0.004214642569422722,0.955626486625988,0.279193251651554,-0.11400526518685695,-0.26393507538716693
2.434551954269409,0.978281310722223,0.13432505606451106,-0.07124700846353985,-0.14087676123191797,0.011858428828418255,0.016326487064361572,0.9574210331775248,0.286805310471975,-0.10607632623759096,-0.27071140680387556
2.4848259687423706,0.977828547091908,0.13566220103275112,-0.06939172651469427,-0.14363827907675264,0.011314640752971172,0.027791056782007217,0.9581311070360243,0.2892603295008607,-0.10109897918454092,-0.27696706367444557
2.518666982650757,0.977438351908749,0.13565319750596946,-0.06739297128095055,-0.14720934236892724,0.01426023617386818,0.01930953748524189,0.9593533035367727,0.2890346231712508,-0.09592612808218025,-0.2849968228438804
2.5816339254379272,0.9771005625881172,0.13492486598518402,-0.06512899289928673,-0.15108958562638897,0.011186533607542515,0.007379110902547836,0.949523766990751,0.28728646791089485,-0.09032317806782181,-0.2937580038399863
2.6125829219818115,0.9767982712233452,0.13423474882103725,-0.06335769591194668,-0.15437564195677894,-0.006753472611308098,-0.01969335786998272,0.9327722657471895,0.2856720320356812,-0.08591345237172354,-0.3011289178457389
2.6871529817581177,0.9760311479213201,0.13606279054453824,-0.06305597455255699,-0.15771491030225682,0.0060785431414842606,-0.019096458330750465,0.9655335554853082,0.28952056648635627,-0.08375034454931866,-0.3081903190679616
2.7158620357513428,0.9755184258321483,0.13888580876350395,-0.06220160139332794,-0.1587621050393289,0.0038712716195732355,-0.01691766455769539,0.9616275168955326,0.2949811824696751,-0.08083360561744636,-0.3106480642701118
2.7718329429626465,0.9750077202565975,0.14218464167693323,-0.06068165939673416,-0.15956554068163017,0.02050423063337803,-0.00846212450414896,0.9641656056046486,0.30115942653182126,-0.07646732918976491,-0.3128274754878568
2.8003770112991333,0.9745000734771222,0.14549158984067004,-0.0583575803567626,-0.1605498620661876,0.012982790358364582,-0.009494993835687637,0.9472352461889386,0.3071064442478255,-0.0703693915615951,-0.31567286929423793
2.836727023124695,0.9740364202532182,0.14823770671924538,-0.05670600639391608,-0.16144080710824696,0.0025892427656799555,-0.003490693401545286,0.9396040141582489,0.31213080265874565,-0.06583026784563281,-0.31814017256804655
2.8841840028762817,0.9736742382435196,0.15009282358263284,-0.05694871689278189,-0.16182530026865805,-0.004682566504925489,0.000640098296571523,0.9344559842720628,0.31594466588480447,-0.06561377084273347,-0.3189345398178865
2.9127849340438843,0.9735560423237416,0.1507977885011018,-0.059161105985212376,-0.1610859233746961,-0.004205206874758005,0.004425631370395422,0.9437478994950652,0.3180134516450057,-0.0701843726420929,-0.316692184030889
2.990517020225525,0.973924676867863,0.15012323771215183,-0.06616639596770948,-0.1567025529274939,0.00035587826278060675,0.016863657161593437,0.9445743091637269,0.31851261840760875,-0.08627376298762222,-0.30519610164739314
3.0751209259033203,0.97343010543075,0.15275042660393895,-0.07102317890048844,-0.15510227221221828,-0.0010028386022895575,0.010573193430900574,0.9519654894247651,0.3251125486050435,-0.09606040111632633,-0.3002490876130893
3.167151927947998,0.9719075513250318,0.15879152689288017,-0.07218845483476122,-0.15801792660049957,0.004866410046815872,-0.010761471465229988,0.946632242295891,0.33786707284765966,-0.09568451998828188,-0.3060180968367737
3.219175934791565,0.9710644189128002,0.16186047339673545,-0.07213568425294668,-0.1600985525777825,0.013570423237979412,-0.010046153329312801,0.948203582316637,0.3442083089906377,-0.09390776435795767,-0.3104634062737435
3.2499409914016724,0.9702743798474299,0.16442439399060213,-0.07156434574172327,-0.16251410070539274,0.016809577122330666,-0.00679093087092042,0.9537290669977665,0.3493998534062122,-0.09105115638039118,-0.3158238025772375
3.2781749963760376,0.9694610452625989,0.16701281197328335,-0.06983302579163407,-0.1654549450157854,0.0066402074880898,-0.007982551120221615,0.9394347593188286,0.35429929824736406,-0.08554568533391423,-0.32275259510555543
3.3341050148010254,0.9687799104251076,0.1691926095290467,-0.06774453425009033,-0.16807768106039978,-0.0009293094044551253,0.006958676502108574,0.9417581195011735,0.358204742442368,-0.07950913935970605,-0.32916662064900865
3.3652559518814087,0.9682717520371912,0.1708798324341411,-0.06557758377990261,-0.17014546326354635,-0.015171153470873833,-0.013797029852867126,0.9332193305599503,0.3610232298098759,-0.07365540675344845,-0.334442025503395
3.396777033805847,0.9678306870465104,0.1727969500370901,-0.06420901801205803,-0.17123735163287973,-0.0042599099688231945,-0.013090342283248901,0.948732627555728,0.36448304423481354,-0.06974266701657374,-0.3373759071974637
3.436414957046509,0.9672487485751465,0.1757244855006912,-0.06218072559558239,-0.17229146014673435,-0.00035587826278060675,-0.016863657161593437,0.9321046344703063,0.36973139742864475,-0.06411001155263345,-0.34056035429460174
3.4932379722595215,0.9666135469704505,0.17881283368239587,-0.060067636685288035,-0.1734249004443139,8.837145287543535e-05,-0.010878480039536953,0.9202717896550894,0.37526624880504494,-0.0581826503981512,-0.34400243484770915
3.5230289697647095,0.9660152223343138,0.18121201133249756,-0.05808679204943652,-0.1749361259011011,-0.004160721320658922,-0.015196094289422035,0.910087626427412,0.37947199651560964,-0.05258799943197494,-0.3481963294117553
3.553192973136902,0.9655441211233413,0.1828445072078626,-0.05705020844079401,-0.17617516029713426,0.004792964085936546,-0.011487280018627644,0.9138730950653553,0.3824456400001576,-0.049325775025211856,-0.3514026279912798
3.658479928970337,0.9652924835170497,0.18345350594055645,-0.05748000440450551,-0.17677992030489398,0.010414974763989449,0.022391971200704575,0.9331577057018876,0.38385229874928173,-0.04974744284821948,-0.35258913866311786
3.688728928565979,0.9653634802696748,0.1831570951352229,-0.05848060486571217,-0.1763715511683646,-0.0039004399441182613,0.007420944515615702,0.936088103801012,0.38359322811085794,-0.05211172279463106,-0.35129180544357225
3.7213209867477417,0.9654399991842165,0.18353977872770175,-0.06005377466501312,-0.17502046956859993,-0.003066685749217868,0.0040454864501953125,0.9459671135991812,0.3848440169497292,-0.05581989421608187,-0.3477977188679207
3.7769110202789307,0.9655562846076211,0.18450881024796018,-0.0614539208174242,-0.172861003355771,-0.006900655571371317,-0.0059538353234529495,0.9334106789901853,0.38715256114904717,-0.05930733364137726,-0.3426719774782092
3.8056269884109497,0.9657038891754547,0.18556121772138084,-0.0629870158811179,-0.17033952880150194,-0.01600135676562786,-0.004603779409080744,0.9181916518136859,0.3896370955472144,-0.06321379449110118,-0.336708654296345
3.836838960647583,0.965756839116321,0.1865063815747328,-0.06493059958340186,-0.16826492761473966,0.0007602669065818191,-0.0019311035284772515,0.9226778589072637,0.39205761137304435,-0.06784523298222381,-0.3315215237680715
3.8947219848632812,0.9657489495867585,0.18730900937077857,-0.06571920409144626,-0.16710851443253227,0.004333872348070145,-0.01020849496126175,0.9266324425116181,0.3938553568196967,-0.06972521352220253,-0.3287605921317917
3.9242979288101196,0.9655911731739204,0.188503239075191,-0.0654778914761768,-0.16677141636300308,0.0025529738049954176,-0.024622999131679535,0.9176977921742946,0.39615480055755864,-0.06896771390013262,-0.32820630019466546
4.019410014152527,0.9648897211300151,0.19227380907892955,-0.06463486700412253,-0.16685600425570063,0.012079490348696709,-0.01637154631316662,0.9320570277050138,0.40347369930198335,-0.0659026245245729,-0.3289851515001064
4.046726942062378,0.9644510118094728,0.19443609483556212,-0.06394463903928256,-0.1671522293078313,0.0052080038003623486,-0.012828661128878593,0.9216477135196328,0.40761967451428205,-0.06359168558440553,-0.3300699575601052
4.077569007873535,0.9641118996701721,0.19603250214802445,-0.06390613479376837,-0.16725857586208318,0.012182146310806274,-0.008319179527461529,0.9212134908884764,0.41083199980089236,-0.0629230545225948,-0.33043536357860287
4.134197950363159,0.9638908088253231,0.1971260434798418,-0.06406820852694811,-0.1671853854756176,0.007385673932731152,-0.004819855093955994,0.9173765180166811,0.4130869160129615,-0.06292743787725638,-0.33029019003837606
4.163290023803711,0.96393038900827,0.1973264099261849,-0.06453343811581164,-0.16654080775712668,0.0025892010889947414,-0.0013205306604504585,0.9141632477403618,0.4136047780464193,-0.06413382993450968,-0.3287075364222923
4.215299010276794,0.9642219262087195,0.1966661428697012,-0.06515368998771393,-0.16538865202702946,0.0015092416433617473,0.009219549596309662,0.9288514424115419,0.41240186459251005,-0.06618576079399173,-0.32589566569792344
4.244684934616089,0.9646463090475724,0.19561991188782868,-0.0653449093869349,-0.16407396284450051,0.01474174577742815,0.0005478899111039937,0.9168318362208083,0.4102633614494969,-0.06752799126148643,-0.32289484974327753
4.282339930534363,0.9651234144189977,0.1947161978616712,-0.06451775948705274,-0.16266501484524662,0.019247693940997124,0.015154262073338032,0.917730291839689,0.4080714648297161,-0.06671139940905071,-0.320139448483942
4.378140926361084,0.9663775538227867,0.1919137262089843,-0.06102953242072107,-0.1598716389228944,0.011377477087080479,0.008893324062228203,0.9173977449536324,0.4011051526608193,-0.061509742117333246,-0.31539022973995673
4.455778956413269,0.9673423315286497,0.18998477442880563,-0.059629268328266385,-0.15684062122157028,-0.021194560453295708,0.003131082048639655,0.9126065680757165,0.39657909996762125,-0.06049863994204661,-0.30931416676159207
4.516337990760803,0.9677970943602751,0.1882315061071494,-0.0628881578214379,-0.15486390355531032,-0.008615683764219284,-0.009423634968698025,0.919523695949465,0.39392746393972355,-0.06874030383337501,-0.30362114834398024
4.680024027824402,0.9672840942503041,0.19306370841615542,-0.07193882178614823,-0.14802889980837455,-0.004234375432133675,-0.00507108960300684,0.929295614361763,0.40584249317628446,-0.08938236433184985,-0.2853123520026428
4.788800001144409,0.9671118904592144,0.19567739754299115,-0.07379513950889934,-0.14477291911875967,0.010070347227156162,-0.005383279174566269,0.9182464573532343,0.41135422631093693,-0.09405153600648891,-0.27754995272381877
4.816468954086304,0.9668930569806632,0.1966999682638251,-0.0739054932646624,-0.14479230576443097,0.013448941521346569,0.0030319702345877886,0.9108768732985482,0.4134571466640938,-0.09400388087127676,-0.2775621533164131
4.847319960594177,0.9667784369715219,0.1967743268652244,-0.07366912841223927,-0.14557553251012115,0.017437152564525604,0.013097519986331463,0.9111723487148993,0.4136161898776758,-0.09312884715421423,-0.2793576501460834
4.885156989097595,0.9669420033644045,0.19524760676287134,-0.07291898929038272,-0.14691581824160355,0.01106907706707716,0.004420544020831585,0.9133006376214325,0.41043924474968835,-0.09135044747448143,-0.28254341911336806
4.940112948417664,0.9672426039609285,0.19321657356633534,-0.07198862551630207,-0.14807705006513314,0.007892676629126072,-0.013392085209488869,0.9228201471269131,0.40617053323875535,-0.08942397684361458,-0.2853986601427974
5.04796302318573,0.9677328631572059,0.19147852668075882,-0.071182245551158,-0.1475198091767596,-0.013676670379936695,-0.0016538435593247414,0.9187204937916249,0.40237168140219953,-0.08844694265025797,-0.28449838355877693
5.110201954841614,0.9679184673992107,0.1910809142567774,-0.07209308779040105,-0.14637092519143602,-0.012435452081263065,0.003848215565085411,0.9245938211679459,0.4017245251120954,-0.09098179855031102,-0.28163351866125563
5.134495973587036,0.9681309324620461,0.19068211561945742,-0.07291557590390593,-0.14507266248451497,-0.005593524780124426,0.008322766982018948,0.9184896675869823,0.4010297761008775,-0.0933929052971946,-0.27848792999268696
5.1656529903411865,0.9683816533156537,0.19009085341473705,-0.07345369425736761,-0.14389882033939028,-0.005898333620280027,0.00749761750921607,0.9153729896061122,0.3998723760836315,-0.09519714307882125,-0.2757303890132286
5.2209999561309814,0.9686340732050301,0.18927105612357578,-0.07394402269886392,-0.14302683791237972,-0.006772464606910944,0.010117785073816776,0.9158539320342243,0.39826611897270614,-0.09682514194397807,-0.27364319660728853
5.254223942756653,0.9688750796914744,0.1882206316546465,-0.07439258841725002,-0.14254783260614534,-0.0024533935356885195,0.005003090016543865,0.9196033636108041,0.3962195723769621,-0.09825095800400616,-0.27241988105597614
5.28413999080658,0.9690675434164536,0.18728267009197733,-0.07464361702960125,-0.14234303294102368,-0.0019427987281233072,7.849041139706969e-05,0.9197008658666164,0.39437269387699453,-0.09911030362366159,-0.27187124158059656
5.327782988548279,0.9692246551587052,0.18652304188179897,-0.07463034317563977,-0.14227800224685477,-0.0005657310830429196,0.007092946674674749,0.9176127867540345,0.392827393825411,-0.0993056690625839,-0.27173400897380456
5.389546036720276,0.9694178922310185,0.18550144454840894,-0.07430521725248604,-0.1424671370155047,0.0030114660039544106,0.0024631861597299576,0.9181515998207033,0.39069262811325683,-0.09880377345123441,-0.27226847661198045
5.419299960136414,0.9696425783934197,0.1842876517309961,-0.0737175887464657,-0.1428180514666217,0.003106937976554036,0.003220292739570141,0.9212692144792527,0.3881132986810501,-0.09773309254830052,-0.27325364891508913
5.448927998542786,0.9697910583233968,0.18332390080589792,-0.07338314029941603,-0.14322156744135234,0.0018217922188341618,-0.008854850195348263,0.9214771988918073,0.38611453904229354,-0.09711150728552424,-0.27424721995453083
5.519987940788269,0.9698088152660078,0.18305090849697955,-0.07262574703683221,-0.14383552136531924,0.00390754034742713,0.004214642569422722,0.9230243552592583,0.3854121596820147,-0.09533492252221648,-0.2758638129143293
5.582472920417786,0.9698225895749331,0.18278697073365013,-0.07201701217652015,-0.14438388152350148,0.005751275457441807,-0.00026858472847379744,0.92543263011612,0.3847614713669766,-0.09389732052754854,-0.27727901096427626
5.664394974708557,0.9697512475556023,0.18222478145760315,-0.0709196355088911,-0.14610652115229947,-0.001333140186034143,-0.00044137294753454626,0.9209578433074057,0.3834790197345885,-0.09102840830397671,-0.28139582782537326
5.703755974769592,0.9698069349552653,0.1814888715603707,-0.07056400753701358,-0.14682300348225627,-0.006349683739244938,-0.010123145766556263,0.9221477066166699,0.381959173533589,-0.09018599336689008,-0.2830585129516662
5.72701096534729,0.9698478454303098,0.18116453621036174,-0.07032683227222639,-0.1470667609802283,0.0013627416919916868,-0.009746227413415909,0.9317389470525086,0.3812591995026241,-0.089676680276024,-0.28366863833950906
5.771081924438477,0.9698520523963982,0.18125000603147248,-0.06991173938944564,-0.14713194440983082,-0.002460535615682602,-0.004462332930415869,0.9258214677684009,0.3813177350919016,-0.0887557507691288,-0.2839741423182188
5.809988021850586,0.9698460217323016,0.18132565620890803,-0.0697136599890486,-0.1471721005502943,0.0002864158304873854,0.0022713199723511934,0.930659931153059,0.38141670888167145,-0.08830295195106352,-0.28413991732450206
5.842513918876648,0.9699473445949606,0.18093014911053548,-0.06925291573711115,-0.1472091538851689,0.0002093365474138409,6.804324220865965e-05,0.9263000062201172,0.38048923649230093,-0.0874303474531655,-0.2843945103195759
5.8841129541397095,0.9701570354803751,0.180163041533293,-0.06866307004981662,-0.14704399583229305,0.0002680647885426879,0.0015473266830667853,0.924135948298499,0.3787570171166561,-0.08647300402170666,-0.2842599132384697
5.924536943435669,0.9703739281977741,0.17920255533422336,-0.0678725331890061,-0.14715315687444866,-0.0008450049790553749,0.014287049882113934,0.91898147854954,0.37660152524500634,-0.08503776515864132,-0.28478421485426153
6.029731035232544,0.9706455913250329,0.1763110069930548,-0.06745913735615758,-0.14903280983662542,-0.0038707968778908253,-0.004936819430440664,0.9330654013901949,0.3708183199384569,-0.08422288658760259,-0.2888940881669037
6.061843991279602,0.9707485065374176,0.1752926519256912,-0.06716038273269047,-0.1496974358070863,-0.0018289341824129224,-0.0006105729262344539,0.9298351687612012,0.3687370213037822,-0.08362160083013609,-0.29040302580629945
6.1066319942474365,0.9708287787975156,0.17449336290242295,-0.06649946288450918,-0.1504039248445922,-0.002949187532067299,0.004833890590816736,0.9346681875176728,0.3669925974706001,-0.08218949917736959,-0.2921412950406948
6.1348419189453125,0.9708418074135593,0.17379605801366488,-0.06587793128600668,-0.15139730016600203,0.002721416763961315,-0.0012856008252128959,0.9382505370303988,0.36548728870841724,-0.08070175230257219,-0.29447476546221385
6.166648030281067,0.9705826063074747,0.17401016582205409,-0.06516362680368457,-0.15311297251678552,0.011256429366767406,0.002287127310410142,0.9402974834665656,0.36584368519819405,-0.07847545877556816,-0.29840413668481763
6.295910954475403,0.9698824081589208,0.17393668517558047,-0.0629898937350684,-0.15845024410901398,0.0028608576394617558,0.003874426241964102,0.9253281685523689,0.3654373402511579,-0.07186836968372401,-0.31059461412577366
6.327562928199768,0.9699183765302869,0.17276695551968987,-0.06270682770924156,-0.15961753177866886,-9.551359107717872e-05,0.0014130565105006099,0.9407766982913017,0.3630829825755276,-0.07118471770760028,-0.31313990024348165
6.38997495174408,0.9699269343131133,0.172033006018535,-0.06225732243066407,-0.1605321155828846,-0.0030518434941768646,-0.0032184761948883533,0.9455775870010257,0.3615318699606948,-0.07012324396606309,-0.31522432124231925
6.476434946060181,0.9699174570860319,0.17181933855916062,-0.061202715749311395,-0.1612219982760747,-0.005659353919327259,-0.00479210214689374,0.9275779793970287,0.36081364048621667,-0.06773067558825374,-0.317074822791624
6.503796935081482,0.9699941993327548,0.17147974564736168,-0.06130229535353215,-0.1610836836161472,-0.00032320115133188665,0.000621020095422864,0.9329925373895094,0.3601539562461016,-0.06809885676515165,-0.31672765802788644
6.554247975349426,0.9700643685521745,0.1709601165502539,-0.061445119860339605,-0.16115870240623498,-0.005637411028146744,-0.00042047860915772617,0.9306839264463633,0.35916161381012474,-0.06853107233789822,-0.3168111221610247
6.590535998344421,0.9700407924169717,0.17075373044202885,-0.062124686286456544,-0.16125896406212883,-0.0012815957888960838,-0.006257350090891123,0.9386732606217265,0.3589725849964532,-0.06996921974851236,-0.31676560809188475
6.625244975090027,0.9699687772894428,0.17110017646306833,-0.06274243802579477,-0.1610859120422151,0.0027984960470348597,0.0009176755556836724,0.9456912474706769,0.3598539092228406,-0.07121020639480921,-0.31618456224282515
6.670429944992065,0.9699891682068579,0.17147971610856413,-0.062588759065268,-0.1606183962444509,0.005773218348622322,0.004103038925677538,0.9385587736032903,0.360532711847481,-0.07095254181420046,-0.31526161147649145
6.70859694480896,0.9701030753386978,0.17144863489670017,-0.06212637785206678,-0.16014268828623432,0.003679852932691574,0.003422606037929654,0.9250612519681454,0.3602881168313051,-0.07018564906410478,-0.3144179484393553
6.748963952064514,0.9702330843952747,0.17091302855618812,-0.06218317594302003,-0.15990509266630182,0.00032324279891327024,-0.0027911830693483353,0.9241409245878458,0.3592132021897127,-0.07056321785539346,-0.3138683981733214
6.781172037124634,0.9702545127386812,0.1706017346124942,-0.0628489484907564,-0.15984733013420702,0.012244424782693386,-0.001022102776914835,0.9425532519817352,0.35879548796708016,-0.07206601053096234,-0.3134877725903949
7.052258014678955,0.9701617874851093,0.1709183787160109,-0.06311159115102795,-0.15996826844138254,0.0028976015746593475,0.0031522493809461594,0.9323059511370957,0.3595239540982284,-0.07246641084286344,-0.3136611667319798
7.052510976791382,0.9701525552018841,0.17091733923869454,-0.06344438993501245,-0.15989358106830615,0.0044768634252250195,0.000769325764849782,0.9306999403052032,0.3596220524291697,-0.07318723940849566,-0.31337944101139154
7.056650996208191,0.9702796062451787,0.17053556908291337,-0.0637594396980532,-0.15940446651102286,-0.0026810811832547188,0.004211054183542728,0.9262119363993406,0.3589180658777234,-0.07414928977511953,-0.3122076974289862
7.056758999824524,0.9705336465979516,0.16961108282394274,-0.06436506323901632,-0.1585988522852566,-0.0012376682134345174,0.000315733632305637,0.9336532093002461,0.35718999987289096,-0.07600223616067721,-0.31023844110536014
7.056823968887329,0.970701102515187,0.16900263287664,-0.06521058609557377,-0.15787687622896365,0.0003818877739831805,0.003028426319360733,0.9425552831962705,0.3561757593825236,-0.07822085988672456,-0.3083744330830423
7.0569939613342285,0.9703883402288602,0.17039838968549575,-0.06695602050936192,-0.15756804397698962,-0.002394706942141056,0.008652537129819393,0.9419915778562427,0.3594991866114747,-0.08154552123263886,-0.3071170485617195
7.102679967880249,0.9701563096236727,0.17113573733177723,-0.06749338526654729,-0.15796810001808767,-0.006577929016202688,0.015279627405107021,0.9297638477291912,0.36118223243690323,-0.08228626703354054,-0.3077898157565217
7.249585032463074,0.969896147303301,0.17023466367039722,-0.06580972025067142,-0.16121615501861822,-0.0007970522274263203,0.004823443479835987,0.9381564422510564,0.35910778179377084,-0.0778045986171454,-0.3152990140656518
7.296998977661133,0.9697601442266317,0.17052784234994692,-0.06459470498759882,-0.16221272897051264,0.0026111439801752567,0.003051092615351081,0.9364397174213082,0.3593847720198023,-0.07480338988892855,-0.3178788761326917
7.355055928230286,0.9696545982003084,0.17042477830327762,-0.06315365179698063,-0.16351411070666289,0.008575348183512688,0.006498181261122227,0.9357904015341774,0.35880903813512943,-0.07134067295949482,-0.3211759002230547
7.387633919715881,0.9695773182798165,0.16997150886871848,-0.0615076475772934,-0.16506417472680865,-0.0004186730948276818,-0.0001360864844173193,0.9319260972552001,0.35747124711401806,-0.06747375496192684,-0.32505891631096223
7.417367935180664,0.9695180683433543,0.1694550011067937,-0.06051858927135425,-0.166304594813473,0.00045545841567218304,-0.0027562533505260944,0.9325147008057684,0.35619265829718544,-0.06511579539956458,-0.32803486390440567
7.455681920051575,0.969487213950489,0.168960195322689,-0.0600624128704715,-0.167150790593179,0.002266000024974346,-0.0006995105068199337,0.935376858280506,0.35510461759739936,-0.06401040028756758,-0.32997607319421596
7.50369393825531,0.9694866303052347,0.16855745456301927,-0.059843640812052144,-0.16763856654358592,0.003121738787740469,-0.001873507397249341,0.9384263292886317,0.3542559376148296,-0.06350514723762164,-0.33107197716874376
7.538470029830933,0.969478189968219,0.16832099423570987,-0.05943333277812165,-0.16807049478651023,0.0033346673008054495,0.0018421659478917718,0.9349680176237598,0.35367219228288016,-0.06256997850395998,-0.33212644604207775
7.576152920722961,0.9694922572258088,0.16791272632185905,-0.05909517476693708,-0.16851657575296244,0.0036578683648258448,0.0012211458524689078,0.9360035692807287,0.3527685700158063,-0.06183741068516524,-0.3331747757529755
7.6217639446258545,0.9695215899360539,0.16743532243288375,-0.059012267243559846,-0.16885167317175961,0.005178402177989483,-0.002641061320900917,0.9377015550853685,0.35180515388497313,-0.06169957055192823,-0.33389079619992457
7.658455014228821,0.9695596552039336,0.167219598790066,-0.05905744873248402,-0.16883070042635573,0.004377799574285746,-0.003635411150753498,0.9373083804384805,0.3513867729247323,-0.061873601888271075,-0.33381788130324136
7.695894956588745,0.9696297652997523,0.16716064489855725,-0.059281397742375785,-0.1684078313751817,0.004855201113969088,-0.0020200409926474094,0.9371408736333251,0.3513171208256085,-0.06251640510863729,-0.3328348941050857
7.74261999130249,0.9697227037698979,0.16706610262087293,-0.05957164684349836,-0.1678628339235906,0.001619597664102912,0.0005425296840257943,0.935405507334508,0.3511898918742064,-0.0633542529219992,-0.33156661513285834
7.776265978813171,0.9697842660870638,0.16690655959044406,-0.06000569109861675,-0.1675110915455845,0.0018289341824129224,0.0006105729262344539,0.9367717223940417,0.35099248146148,-0.06443829578470943,-0.3306549915995538
7.815400958061218,0.969829916434213,0.16676851978578153,-0.0607871927856374,-0.16710204013498203,-0.0038927397690713406,-0.00930844247341156,0.9387480402365327,0.35094943603090556,-0.06625577305919807,-0.32949889308888924
7.86024796962738,0.9698980289010338,0.16678062825350923,-0.06169017436109582,-0.16636181092468083,0.0012596112210303545,0.004055889323353767,0.9398585902526975,0.35122276558355464,-0.06840021796317083,-0.3276024967733187
7.896945953369141,0.9700654795199902,0.16638142100243178,-0.06194788096086058,-0.16568856541430482,-0.0003967302036471665,0.00423553679138422,0.9368088588234968,0.3504599726793835,-0.06931760614197828,-0.32606080070387417
7.93687891960144,0.9702470848814696,0.16570717971068374,-0.06213654455407884,-0.16522935594469604,0.003411746583878994,0.004045442212373018,0.9408314696047455,0.3491374016055482,-0.07009938056424514,-0.32498805712346956
7.989686012268066,0.970344955828433,0.16521172539165202,-0.06222281849968181,-0.16511847044712336,-0.0018289341824129224,-0.0006105729262344539,0.9379780573071912,0.34816448915159626,-0.07047976585293211,-0.3247007808326126
8.018363952636719,0.9704042864958075,0.16497615047013742,-0.062562087110836,-0.16487638502466773,-0.0008006024872884154,-0.000994349829852581,0.9372107163071632,0.3477859480235077,-0.07134823548272398,-0.3240565804738237
8.056951999664307,0.970478982271411,0.1648602332230197,-0.06293685132010807,-0.16441009688509176,-0.002684673061594367,0.0005634240224026144,0.9353062412701547,0.34764186703519895,-0.07233486535544756,-0.3229290225224134
8.102139949798584,0.9705522444943795,0.16478252065514812,-0.06353234983823372,-0.16382482146706454,0.0037349476478993893,0.003424422349780798,0.941772666759789,0.3476362850518858,-0.07381027538272006,-0.3214723499652709
8.148865938186646,0.9705892569961131,0.1648520493986066,-0.06375503627511787,-0.1634490037941717,0.0006132088601589203,0.005297929514199495,0.9392580528510734,0.34781945628341504,-0.07438913916461824,-0.32059806316990164
8.183696031570435,0.9706174848988769,0.16474877022705686,-0.06413350835568284,-0.1632372228004176,-0.0003415938117541373,0.0020671901293098927,0.9395371575374156,0.3477188058472867,-0.07528436867406553,-0.3200105779932716
8.277910947799683,0.9707793994746151,0.16421343188835819,-0.06474324687230695,-0.16257190945041797,-0.0033346673008054495,-0.0018421659478917718,0.9389878878137097,0.34679025574916683,-0.07696299681371772,-0.3183645120335564
8.333967924118042,0.9710319352784549,0.16406544294903114,-0.06508769096959369,-0.16106876244191426,0.0011789400596171618,-0.0017950170440599322,0.9410981717519462,0.34648388998028545,-0.07827996703316073,-0.31504882828561437
8.380483984947205,0.9711586735301995,0.16444977738500563,-0.06499003746248168,-0.1599480134345832,0.0002093365474138409,6.804324220865965e-05,0.9388284853193909,0.34713352085175414,-0.07837479368022911,-0.3127171031731318
8.443109035491943,0.9712469793975658,0.16507183718551072,-0.06483933110105289,-0.15882839019580675,0.001164139248430729,0.0032987832091748714,0.9381498508155346,0.3482439558601115,-0.07828835252458141,-0.31041323152197936
8.497370958328247,0.9713227038207511,0.16581055137050088,-0.06509564619911756,-0.15748519265756064,0.0017957407981157303,0.007150542922317982,0.9366057165898383,0.3496982189096717,-0.07909706433767938,-0.3074923098811975
8.643715023994446,0.9713834189034072,0.16560240077336455,-0.06582786677159408,-0.1570245425470634,-0.0033566101919859648,-0.006213788874447346,0.9352121038828045,0.34947015117385977,-0.08085072968219362,-0.3062475661940181
8.716809034347534,0.9715141729834084,0.16570354772408022,-0.06655209732139941,-0.15579869527812296,-0.002339528873562813,0.004314026795327663,0.9370696339174174,0.3497938517357959,-0.08278158365730748,-0.30339008331912964
8.761276006698608,0.9716808788276673,0.16516976169450492,-0.06686261422303592,-0.15519206749577635,-0.00178504828363657,0.008132673799991608,0.9419606178998947,0.34876528955787267,-0.08381010616187015,-0.3019814516964214
8.773782014846802,0.9718137240727179,0.16452359761212285,-0.06696853827866867,-0.15500077119904748,-0.0036175327841192484,0.0017043075058609247,0.9373647319735028,0.3474836463177991,-0.08429098975280717,-0.3015258084339919
8.820212960243225,0.9718785189022803,0.16403445647224527,-0.06725117019074846,-0.15499039932564604,-0.003084995085373521,0.0011513307690620422,0.9396545612253249,0.3465869608499518,-0.08502448341409473,-0.3013945892266532
8.856938004493713,0.9719369762810763,0.16373464197234022,-0.06733651265966392,-0.15490407630994937,-0.0037533403374254704,-0.001978252548724413,0.9358900813385844,0.3460035321356818,-0.08532122702561926,-0.30117631525745875
8.904999017715454,0.9719956616549944,0.16369584704950066,-0.06725662045329417,-0.1546115186844957,-0.00022772920783609152,0.0013781266752630472,0.9387255442561582,0.34587565274413035,-0.08527503117029203,-0.3005841908764162
8.944684982299805,0.9719975509144985,0.1639023268364495,-0.06695513197083007,-0.15451110622136757,-0.0012928046053275466,0.002484080381691456,0.9345826688222587,0.3461896026804875,-0.08462666549910802,-0.3004817667927303
8.980417013168335,0.9719307307637018,0.16409887639520257,-0.06704178647731339,-0.15468510443760838,0.0017150696367025375,0.0012996362056583166,0.9375251614837907,0.3466257820427694,-0.08468446815245932,-0.30082312305449327
9.017581939697266,0.9718798972789526,0.16415733862297702,-0.06705513322601726,-0.15493674405665603,0.0022072717547416687,-0.0021787940058857203,0.9396796501241624,0.3467691415667099,-0.08460181316507294,-0.30135265781081944
9.062382936477661,0.971853047196712,0.16429186469316556,-0.06678553977097215,-0.1550788320990291,0.00032320115133188665,-0.000621020095422864,0.9377765461103991,0.3469691570082176,-0.08395059262630718,-0.30175198294568645
9.103174924850464,0.9718415644416161,0.16433518321962196,-0.06646521817469192,-0.15524231784123835,0.0018289341824129224,0.0006105729262344539,0.9368413406191394,0.3469721413278037,-0.08321299455584955,-0.3022130832036256
9.156085014343262,0.9718748953321634,0.16407084170116804,-0.06615949030987385,-0.155443713505267,0.0020969989709556103,0.0021578995510935783,0.935578700620681,0.3463648810903482,-0.08258252711856379,-0.30274305028316967
9.181607007980347,0.9719285209631527,0.16362239528158468,-0.06608391408167825,-0.15561329615556682,0.0008006024872884154,0.000994349829852581,0.9382481202483177,0.34545583441067984,-0.08249580927483355,-0.30311995922998514
9.215981006622314,0.9719809946766178,0.16333436535995693,-0.06603175223517198,-0.15561039843079277,0.0021521353628486395,-1.0447169188410044e-05,0.9382929326966405,0.344861412136129,-0.082474006703106,-0.3031263837011707
9.25623095035553,0.9720395949406369,0.1631206686382436,-0.06604937985279363,-0.15546079857411804,-0.00032320115133188665,0.000621020095422864,0.937377353082411,0.3444251838255075,-0.0826287718115066,-0.3027990030831402
9.339578032493591,0.972102036257013,0.1630633795447201,-0.06634163912760763,-0.15500579510197204,-0.00045545841567218304,0.0027562533505260944,0.9407484794501215,0.3443608965286737,-0.08341856963705147,-0.3017313323404208
9.38978397846222,0.9720709771393373,0.16322618986740642,-0.0664881804854981,-0.1549665467668397,-0.00022772920783609152,0.0013781266752630472,0.9392381442012265,0.3447291464512307,-0.08368883708630569,-0.30159956848069686
9.44085693359375,0.9720245409222527,0.16343577492938816,-0.06670017568309838,-0.1549458213158084,-0.003925933036953211,-0.002768472535535693,0.9398195459507406,0.34521286881282165,-0.08407429852971526,-0.3014846523482976
9.528949975967407,0.9721001731388843,0.16349439162312904,-0.06698759105656994,-0.15428335762420456,-0.0007602669065818191,0.0019311035284772515,0.9368853129562922,0.3453605858468015,-0.08489718451174637,-0.2999808831118953
9.559296011924744,0.9721441149450284,0.16316962371199176,-0.06708508270004536,-0.15430829051180783,0.0005177368875592947,0.004540822934359312,0.9374444091226906,0.3447403841177954,-0.085184811883025,-0.299993937327123
9.602512955665588,0.9721283013391356,0.1627581035713216,-0.06742044388635385,-0.15469595322220273,-0.0015792620833963156,0.002382923848927021,0.9394510623533279,0.3440503761266425,-0.08585744138040731,-0.30069011158787423
9.637928009033203,0.9721471520160183,0.1623150898330526,-0.06785278056879211,-0.1548539356276672,-0.0026627301704138517,0.004935047123581171,0.9382621038821526,0.343306885583163,-0.08682470506287211,-0.3008659934024731
9.665364980697632,0.9722679783256775,0.16159432092264944,-0.06823426751946683,-0.1546811551831396,-0.0015976547729223967,0.0038290938828140497,0.9427137314341962,0.34196087945141074,-0.087888167760306,-0.30035696801997286
9.721688032150269,0.9723868590792648,0.1610363149664617,-0.06867657193819002,-0.1543194297592488,-0.00015064992476254702,0.003581403288990259,0.9448413029313087,0.34094245935265155,-0.08909785912602762,-0.29943080648038795
9.756991028785706,0.9723969928704009,0.16101726620413628,-0.06902618068972119,-0.15411970946328088,2.1942949388176203e-05,0.004371623508632183,0.9411939466372132,0.3409918516711537,-0.08990004602424315,-0.29888627270953205
9.810809969902039,0.9723494465094789,0.1611874475436695,-0.06932833998072378,-0.15410590824913625,-0.0025892010889947414,0.0013205306604504585,0.9380565126775764,0.3414236054190285,-0.09048186648959114,-0.298753179737171
9.839344024658203,0.9722949876623721,0.16144385226102617,-0.06958435295548732,-0.1540662710307673,0.002530472818762064,-0.002799814101308584,0.9414363582618535,0.34201206581387344,-0.09095284735028612,-0.2985820918796317
9.873417019844055,0.972220911404813,0.1619513818650163,-0.06958885352299604,-0.15399853659609078,0.0030262668151408434,-0.0026306139770895243,0.9382243353174999,0.34302585854123363,-0.09084080642107353,-0.2984416008529015
9.899410963058472,0.9720974876388442,0.16262082630055327,-0.06945634499328764,-0.15413221927578913,0.0025340646971017122,0.0008478161180391908,0.9356302027590573,0.3443421467453537,-0.0903242592700771,-0.29877754219946445
9.959264993667603,0.9719674295202456,0.16308519042578024,-0.06933622643568015,-0.15451575927605532,0.00597900478169322,-0.0016467112582176924,0.9384539669845253,0.34527351835961895,-0.08979989368715519,-0.2996370201123216
9.993407011032104,0.9718539709932797,0.16336188251324638,-0.06908169940268032,-0.15504983956569504,0.00405459851026535,-0.0030143908224999905,0.9366091181873344,0.3458006079593152,-0.08899475594049609,-0.30086157267509134
10.020161986351013,0.9717992980688196,0.16339998583852855,-0.06881420135377124,-0.15547078067114983,0.00222566444426775,-0.0036249638069421053,0.9369692179025151,0.3458337468404262,-0.08827354836139172,-0.301848518777177
10.083711981773376,0.971825093304406,0.16320488666586014,-0.06854557606985016,-0.1556332815806515,0.0019024631474167109,-0.003003943944349885,0.936489658372011,0.3453745722954092,-0.08771380225527523,-0.3022850466103389
10.115031957626343,0.971930308623546,0.16273729891192046,-0.06836628517347038,-0.15554424702795716,-0.00032320115133188665,0.000621020095422864,0.9370043472154066,0.34437303666325075,-0.08751199477380972,-0.30215300017620694
10.142805933952332,0.9720480558569193,0.1622158250504708,-0.06835533093876339,-0.15535783443776693,0.0010502745863050222,0.003987846430391073,0.9397652324987575,0.3433062295658149,-0.08771036164538523,-0.3017548734485132
10.199811935424805,0.9721063344601147,0.16184651800395727,-0.06842454997734447,-0.15534784303504182,-0.001351532875560224,0.0010047969408333302,0.9384049279615283,0.34258528368867086,-0.08796539958160221,-0.30170452207599996
10.259508967399597,0.9720676963102427,0.16204978308856602,-0.06917503849414662,-0.15504494767156374,-0.0038707968778908253,-0.004936819430440664,0.9422473777085543,0.34319469529518043,-0.08957181338180648,-0.30080264080213687
10.306434988975525,0.9720124740991472,0.16261948478675736,-0.06936472159085687,-0.15470975360372763,-0.0030446595046669245,0.004076784010976553,0.9398492677137256,0.3443651139605901,-0.08992248528220913,-0.3000325868301164
10.35369098186493,0.9720050090884321,0.16273040929662783,-0.06934886094416313,-0.154647525798879,-0.004969065543264151,0.0027091042138636112,0.9380467982264236,0.34457724794673267,-0.08988034184857989,-0.29990765281390336
10.401495933532715,0.971976093980618,0.16265844116684425,-0.06938075066245303,-0.1548899885200349,-0.0029159942641854286,-0.0017060794634744525,0.9414872638881207,0.344464836855691,-0.08987816240971994,-0.3004089899610574
10.543033957481384,0.9719701451244125,0.16265468378735765,-0.06869128104864905,-0.15523807555789676,0.003947875928133726,0.007140095345675945,0.9380863676778972,0.3442789190137739,-0.08832222996625819,-0.30138900335417856
10.594664931297302,0.9719474448076207,0.16243603524756753,-0.0682312720489095,-0.15581098695338402,0.0006096586002968252,-0.0005198634462431073,0.9343529692851007,0.3437509277380819,-0.08722264249103656,-0.3027610110801189
10.63593602180481,0.9719653269518993,0.16210741303907594,-0.06802798189692928,-0.15613058943112887,0.004587136209011078,-0.0035673677921295166,0.9397588635329157,0.3430575700660549,-0.0867810453917016,-0.30350423397120424
10.673828959465027,0.9720048561789569,0.16207286336218743,-0.06774019207472269,-0.15604576733619976,0.0025892010889947414,-0.0013205306604504585,0.9386550943017937,0.3428922343869072,-0.08622616540350604,-0.30342502965944085
10.718289971351624,0.972064540143987,0.16211795583159228,-0.06755535563540171,-0.1557063779709341,0.0028976015746593475,0.0031522493809461594,0.937006373424083,0.3428959197870758,-0.08595420142095597,-0.30277198438260305
10.807420015335083,0.972059088848636,0.16194959183814578,-0.0674394520099144,-0.1559657874801158,-0.0010834680870175362,0.0025521237403154373,0.9370885246898979,0.3425453393875719,-0.08566886207017453,-0.30335907939501194
10.912227034568787,0.9721571469713409,0.16158921115159133,-0.06784203651882761,-0.15555334034640397,-0.0027765945997089148,0.005624110344797373,0.939417814661283,0.3419091292173074,-0.08675920718406474,-0.3023397548697662
10.942551970481873,0.9721563524675985,0.16170538973063978,-0.06788059116580418,-0.15542071168339683,-0.0013847262598574162,0.007544767111539841,0.9390227234107442,0.34214225184013775,-0.0868533787108431,-0.3020472432371883
10.997727036476135,0.9720909455653296,0.1618055412044627,-0.06788378237309635,-0.15572384212666257,-0.0009879961144179106,0.0033092303201556206,0.9391075065359473,0.342371239846609,-0.08671992350669767,-0.30268917388408706
11.053900957107544,0.9719976839601913,0.16195914482996107,-0.06776067361595153,-0.156199351980243,-0.009221750311553478,-0.005256141070276499,0.9351372690871358,0.3426839283644724,-0.08624594122521571,-0.3037412159234209
11.106459975242615,0.972140382013682,0.16248752224713517,-0.06773904545166465,-0.15476482648606404,-0.0005141866859048605,0.001276969793252647,0.9436294618062675,0.3436103728510056,-0.08657136607761558,-0.3007197666847956
11.188606977462769,0.9724217053474979,0.16307794508972243,-0.0665755342571355,-0.15287047671957205,0.007322878576815128,0.011907714419066906,0.9369273567572236,0.3442767268671955,-0.08468389162091156,-0.2971279732039429
11.2430499792099,0.9722884926775615,0.16342797552881902,-0.06612863143035345,-0.1535359366970299,0.0037533403374254704,0.001978252548724413,0.93926000315696,0.3449020770211475,-0.08341128474701225,-0.29870038958150563
11.277359962463379,0.9721264218275137,0.16372542020558725,-0.06566768103397094,-0.15444056811658727,0.006129613146185875,-0.0030579515732824802,0.9432702101767063,0.34543617828963397,-0.08203544142734287,-0.3007848146769084
11.31722903251648,0.972013362038195,0.1640577983275579,-0.06523830508727425,-0.15498092681078932,-0.005247822962701321,-0.014121439307928085,0.9342721197754145,0.34601758921451753,-0.08084797026834332,-0.3020885358181881
11.346544027328491,0.9719816365045129,0.16431189920264352,-0.06539276542257337,-0.15484548554501423,0.007565408945083618,0.0054357885383069515,0.9374167943024077,0.34656372502055044,-0.08114328203017307,-0.301752355313938
11.403764963150024,0.9720274466040504,0.1640409042812941,-0.06527884642340756,-0.1548930098684121,-0.0023578801192343235,0.0035900340881198645,0.9308465952053666,0.3459887463070798,-0.08096948872914889,-0.30188751265259484
11.435809016227722,0.9720313774815903,0.16356439812646356,-0.06592161413609407,-0.15509959399969925,-0.00021292839664965868,-0.0037156734615564346,0.9415175220929086,0.34524612118975045,-0.0823660588017303,-0.3020878388972745
11.476835012435913,0.9719584974700378,0.16380216078944138,-0.06661379308201067,-0.1550097576015061,-0.002060255268588662,-0.0028800764121115208,0.9442182071506977,0.3459275009211417,-0.08376400208145496,-0.30165734372707487
11.521353960037231,0.9719141050003143,0.16445868240550204,-0.06704031957682931,-0.1544081227962986,-0.007300935685634613,-0.0075360918417572975,0.9405133426189423,0.34732372848620435,-0.08467890164418698,-0.30024305081210345
11.556308031082153,0.971866078143191,0.16543263330453345,-0.06747399508852242,-0.1534782300219754,-0.00148379011079669,0.0031400301959365606,0.9397270849440247,0.3493299541391363,-0.08564165170571492,-0.298133765759577
11.59597897529602,0.9718105377745174,0.1661215925018813,-0.06742764900256044,-0.153106141227235,-0.002857265993952751,-0.00022679605172015727,0.9368637392763048,0.35066732993810523,-0.08548540000140979,-0.29737289345068496
11.641963005065918,0.9716854524157024,0.16659036069454392,-0.06736024611130331,-0.15341945609631577,-0.0015644612722098827,-0.0027108765207231045,0.9392933256458491,0.3516162335634724,-0.08509207165036017,-0.2980697815013096
11.677778959274292,0.9715858405604199,0.1668249837627366,-0.06711509153485788,-0.15390211293700615,-0.0016635251231491566,-0.007115612737834454,0.9422357226721942,0.3520554260904709,-0.08433299572894527,-0.2991866385488451
11.726042032241821,0.9715908469163842,0.1668165216379196,-0.06665407881151213,-0.15407996473764804,-0.0015644612722098827,-0.0027108765207231045,0.9393317706417292,0.35191377592385953,-0.08331098763703017,-0.29973036590319496
11.762131929397583,0.9717013001330906,0.16638775689792815,-0.06603731677913902,-0.1541124319011137,0.0002680647885426879,0.0015473266830667853,0.9343909870367497,0.3508676684863593,-0.08214358204056016,-0.30001261013907815
11.807910919189453,0.9718410441923389,0.16561472851250011,-0.06560651976038688,-0.15424803871078388,0.0008593307575210929,0.0024736332707107067,0.9341812436468899,0.3491952490098279,-0.08142539841014775,-0.30043811895490274
11.829172968864441,0.9719570624373408,0.16478248847560437,-0.06537508158114437,-0.1545063099048845,-1.4800811186432838e-05,0.005093799903988838,0.9347952832467854,0.3474749269617178,-0.08109374058399653,-0.3010500638239158
11.882557988166809,0.9721001290951811,0.1638324904895625,-0.0653296014163008,-0.1546355994422598,-0.005622609984129667,-0.005514278542250395,0.9368219305179082,0.3455643661204184,-0.08123121219751157,-0.3013197069057806
11.916674017906189,0.9721627981945106,0.1636420598104183,-0.06566652691797241,-0.1543001982301548,-0.00015064992476254702,0.003581403288990259,0.9439580217003822,0.3452566166888665,-0.08210927438273569,-0.3004862221056284
11.958200931549072,0.9721571050713628,0.1639343972136133,-0.06531811804714681,-0.15417404578180202,-0.002582059009000659,0.01078595407307148,0.9375762496492825,0.3457269419764873,-0.08134787571683375,-0.30034817919196294
11.9878009557724,0.9721040837833138,0.16410664551615298,-0.06469450957066014,-0.1545874918373203,0.0020857485942542553,0.013069492764770985,0.9388931376161054,0.34591689729724523,-0.07985175346251983,-0.30144857330163827
12.046918988227844,0.972045966267836,0.16395246299460445,-0.06396895654452801,-0.1554163928016359,0.004616221413016319,0.010269679129123688,0.9424296081997454,0.3454523196773752,-0.0780876088337302,-0.30345769012321416
12.076835036277771,0.9719425415633312,0.16390307669013623,-0.06325684431357555,-0.15640334510107018,-0.005879899021238089,0.003881285199895501,0.9235892947763205,0.3452117155341816,-0.07626281411554249,-0.3057990546295441
12.12272596359253,0.9719937658390619,0.16316748275610402,-0.06362686598319585,-0.15670351259350845,0.008942434564232826,0.014620407484471798,0.9463459644466639,0.3438738371952767,-0.07714011656107,-0.3062845295726
12.155493974685669,0.9719528432516851,0.1631745798218571,-0.06320816186916746,-0.15711928156256455,0.013136949390172958,-0.005088439676910639,0.9446886852383614,0.34379075085823085,-0.07611830256367845,-0.30731256231866044
12.198235988616943,0.9716690125089861,0.1644551681038573,-0.06224676355390535,-0.15792096279354262,0.007642529904842377,0.005468901712447405,0.9325164360925555,0.3461217538421936,-0.0734422102062369,-0.3093893922938186
12.243667960166931,0.971493810957325,0.1651188569279015,-0.06156022526074567,-0.15857444918824637,0.003235603217035532,-0.002562570618465543,0.9396216640016064,0.3472865983146782,-0.07157392612123127,-0.31104112341141466
12.276211023330688,0.971426492465994,0.16557333808648145,-0.0614426478125722,-0.15855887239231636,0.008355277590453625,-0.006682915613055229,0.9429664616473019,0.3481604530336444,-0.07119593248323429,-0.3110662619280458
12.317458987236023,0.9713485142501839,0.16640914548010732,-0.06160687109562232,-0.15809675207029947,0.00641966238617897,0.0006908351788297296,0.9332070853561163,0.3498556920024117,-0.07145146815301737,-0.31005739573234725
12.367301940917969,0.9712767301361038,0.16708334017697585,-0.06203725393735154,-0.15765769196923415,0.0015425183810293674,-0.0016607469879090786,0.9300197865813971,0.35131162955364953,-0.07230191139388943,-0.30899520901952676
12.398306012153625,0.9712338941647284,0.16736033021490318,-0.06286674008596528,-0.1572989332348253,0.00195759953930974,-0.005172290839254856,0.937433036393486,0.3521000641095408,-0.07407334006833595,-0.30794438425884185
12.446125984191895,0.9712184629064876,0.1678195682836539,-0.06362565733987319,-0.15659824234606362,-0.008850554935634136,-0.017510931938886642,0.9350115869892761,0.3532044967363638,-0.07577393889353075,-0.3061970875117747
12.481981992721558,0.9712412454112545,0.16867566187397517,-0.06443000855228806,-0.15520251706062432,-0.0008373878081329167,0.0018979898886755109,0.939724721480161,0.35506244812294696,-0.07771735900890005,-0.302965986725484
12.516665935516357,0.9712660922741723,0.1693691318883269,-0.06486038945588264,-0.1541080466019503,-0.0006832291837781668,0.006304542999714613,0.9486936591565609,0.3564995328274861,-0.07882367120013054,-0.30050269009268504
12.558215975761414,0.9712975904775962,0.1697996092559514,-0.06476002897060859,-0.15347663716959514,-0.0006760454853065312,0.013599804602563381,0.9382698051631451,0.35728310794984314,-0.07872990578278727,-0.29920935891591927
12.60903799533844,0.9715018877398461,0.169018668762473,-0.06369787552530742,-0.1534906956336517,-0.0035552126355469227,0.006831221282482147,0.9272612086497247,0.35539208323925,-0.07674608917827379,-0.29960650702575026
12.636803984642029,0.9717287168063956,0.167785563144451,-0.06291918752136251,-0.15372834630526946,-0.006247027777135372,-0.0020707782823592424,0.9256492191925645,0.35269591281629475,-0.07540240628689905,-0.3003583044154863
12.674476027488708,0.9717953760868611,0.1670514311962244,-0.06261132545559134,-0.15423128993488852,0.000862881017383188,0.008291427046060562,0.9392983408179134,0.35116598412453776,-0.07479148763574359,-0.30151491533049124
12.721535921096802,0.9715302831421512,0.1674945597266209,-0.06291880323823242,-0.1552921243328666,0.0065589784644544125,0.012361351400613785,0.9497380144894123,0.3522320339023381,-0.07489793992885634,-0.3036690949476311
12.756610989570618,0.9711160139620441,0.1685969478216374,-0.06272582724277932,-0.15676132726763167,-0.012057073414325714,-0.0011113138170912862,0.9357887753285468,0.3544987856655342,-0.07360839615145386,-0.30689538547354966
12.796955943107605,0.9708172681118359,0.16937654208866537,-0.06276605582886621,-0.15775263293728037,0.0039882115088403225,0.010065549053251743,0.9350282702944241,0.3561520659058399,-0.07307636942997427,-0.3090153069242366
12.872467994689941,0.970495901604462,0.1703002717705294,-0.06235176736546173,-0.15889512959608973,-0.005042077973484993,-0.017701026052236557,0.9372766360174865,0.3579620753882741,-0.07149329161461994,-0.311631968729027
12.967859983444214,0.9698415907515734,0.17450367704491504,-0.06247159013700332,-0.15828141633574558,0.004271035548299551,0.00868923868983984,0.9427926586940885,0.3664014068899825,-0.07068021187559001,-0.3104534220487323
13.019115924835205,0.9694495500569895,0.17668334458313084,-0.06145031576650743,-0.158664266122152,0.005324943922460079,0.014154551550745964,0.9277901926543564,0.37048880640638043,-0.06772247677324035,-0.3117566361333929
13.122269988059998,0.967873746204995,0.18058269328169727,-0.05892972677688607,-0.16473492171104126,0.0008705396903678775,-0.006267796736210585,0.9329098016023636,0.3779092596791448,-0.058753704240558605,-0.32593577167848536
13.157537937164307,0.9673080060815744,0.18239377963272144,-0.059043906128888275,-0.1660168483818397,0.008300099521875381,-0.002344405511394143,0.9400242287665606,0.38166533601829994,-0.05785961153339172,-0.3287629181637675
13.204718947410583,0.9668768172825449,0.18415926925373916,-0.058752331142953994,-0.16668126200712113,0.008340476080775261,-0.0015891153598204255,0.9282626151107252,0.3851568297121776,-0.056378743993725944,-0.3304305457349197
13.236833930015564,0.966612983785368,0.18535437917080136,-0.05853166307372442,-0.16696429295990975,0.0067980000749230385,-0.00209853146225214,0.9234965310897678,0.3875025249102701,-0.055393113597522435,-0.3312154957600581
13.282351016998291,0.9664795403127471,0.18603715455164682,-0.058665324683327844,-0.1669304246409693,0.004047456197440624,-0.012479813769459724,0.9231989957625046,0.3889188874539951,-0.055454838742111615,-0.3311408283151512
13.32000994682312,0.9663998028581202,0.18672947642966828,-0.05907974593096894,-0.16647236660701548,0.0032687969505786896,-0.009102541022002697,0.9246346787549555,0.39042443934987897,-0.056281504587534094,-0.330040980013054
13.357702016830444,0.9662779980093679,0.1875854911661187,-0.059696459917106155,-0.16599642101997672,1.839266042225063e-05,-0.0014461700338870287,0.9197674090974033,0.39232550208126854,-0.05748666045819509,-0.3288310874656777
13.398101925849915,0.9660898994594735,0.18818584611726463,-0.06074745821860704,-0.16603038734398495,0.0019831343088299036,0.0028469630051404238,0.9206455681705847,0.39388708971676856,-0.059472384752803704,-0.32852114591780734
13.442528009414673,0.965857272895111,0.1886164913472147,-0.06178680137402807,-0.1665111775664377,-0.004748478531837463,-0.008134446106851101,0.920248985697981,0.39513155037351017,-0.06129977750543069,-0.3291638873141839
13.470952987670898,0.9655534350440321,0.18950147974027956,-0.06275188363127672,-0.16690720225502217,-0.004594278521835804,-0.005898055620491505,0.9185045979684219,0.3972620773117531,-0.06285536823909169,-0.32968446690122977
13.514065027236938,0.9653389307162344,0.19052338807858799,-0.06345543330195526,-0.1667179171906431,-0.007433151826262474,-0.007571021560579538,0.9159712698310614,0.39954324533624586,-0.06407139426527275,-0.3290571099845524
13.569414973258972,0.9652902716699598,0.19161712242717222,-0.06433571654584237,-0.16540385150527978,-0.0021189835388213396,-0.0043593598529696465,0.9279236001893878,0.4019514877909995,-0.06613198066121678,-0.32592909713433865
13.597855925559998,0.9653515649114441,0.1928415544940187,-0.0648123134581392,-0.16342541723572418,-0.0018437765538692474,0.006653389893472195,0.9255677238106728,0.404439728372063,-0.06760436019964162,-0.3215367075857921
13.634130954742432,0.9654021963207358,0.1940282410403862,-0.06512299349468573,-0.1615874043125334,0.00017969327745959163,0.012425807304680347,0.9232705128379166,0.4068045575097689,-0.06869013065956972,-0.3175090024225776
13.683944940567017,0.9654734884598355,0.19473324127235334,-0.06496265652286821,-0.1603736160506739,-0.00601219804957509,0.00818668119609356,0.9148331868345849,0.4080891879287369,-0.06866775908006127,-0.31499722617753395
13.72117793560028,0.965535299620878,0.1949588535681377,-0.06476800679643761,-0.15980493587322075,0.0031288808677345514,0.007591915782541037,0.918230339884758,0.40844181911789834,-0.0684396303871919,-0.3138647381581337
13.757597923278809,0.9655011200770001,0.19501295622386247,-0.06403741820518091,-0.16023925312257398,-0.0018289341824129224,-0.0006105729262344539,0.9160495680989698,0.4083473138933752,-0.06668744453682307,-0.3151183367741703
13.803424954414368,0.965406804663058,0.19498843334244356,-0.06365904594457089,-0.160986703507746,0.0012928046053275466,-0.002484080381691456,0.9185774144716561,0.40822721090186453,-0.06556336637874456,-0.31689379770270354
13.837808012962341,0.9653833624606377,0.19482213821197067,-0.06329820852939916,-0.16147020354023225,0.004091342445462942,-0.0037365679163485765,0.920529916882515,0.4078075728160482,-0.06464044843664425,-0.31808155724781034
13.882295966148376,0.9654239295515651,0.1945560208164577,-0.06261028595981016,-0.16181615233585278,0.004855201113969088,-0.0020200409926474094,0.9165105735883117,0.4070703600205618,-0.06312291986033738,-0.3191033573554605
13.923556923866272,0.965439446635565,0.194340991264793,-0.06208313885445481,-0.1621852375733514,0.003253995906561613,-0.0040087406523525715,0.9157554572448134,0.40648898784830917,-0.06191830835393227,-0.3201094690197974
13.95940899848938,0.9654566591571943,0.19399359070129776,-0.06191592537554069,-0.16256135998741178,0.00016545073594897985,-0.008675203658640385,0.9132764339447021,0.405757733668842,-0.0615128188108274,-0.3209683675500414
13.99711799621582,0.9655343133361953,0.1935664851289608,-0.06235042451719648,-0.162443397236285,-8.781329961493611e-05,-0.015316329896450043,0.9173672320903279,0.405030721254158,-0.06261991979824892,-0.3205002221134707
14.048758029937744,0.9656878403732317,0.19333686603932446,-0.06310454341994626,-0.16151027990897843,-0.0034408732317388058,-0.015712326392531395,0.9213876319117844,0.4047513204319515,-0.06469566057533284,-0.3181513245226257
14.078320980072021,0.9658427771644866,0.1935557616682787,-0.06380637226623069,-0.16003916756036457,-0.004917479585856199,-0.005277035292237997,0.9144507860764861,0.40531896974263953,-0.06675511636977866,-0.3146922209642059
14.11760401725769,0.9660404796248465,0.1935085602980215,-0.064458483720501,-0.15863592610767008,-0.0005693230195902288,0.0034453165717422962,0.9202118546236306,0.40533329131212353,-0.06876602322054115,-0.31138389148862733
14.16261100769043,0.9662183143471836,0.1931608683270445,-0.06475975397967211,-0.15785192870366457,-0.005009443033486605,0.001953813945874572,0.9281538054347038,0.4046706594533944,-0.06985689847236919,-0.30954431000080607
14.196955919265747,0.9662838906816694,0.19306907631433878,-0.06518491585429327,-0.15738680681783151,-0.0020969989709556103,-0.0021578995510935783,0.9187790784053504,0.4045852926506181,-0.07098710277108151,-0.30835595417458384
14.237251996994019,0.966382510332722,0.19293763023180902,-0.06526815113161695,-0.15690722000028087,-0.0008889323798939586,0.00771396653726697,0.9146832977421582,0.4043107670529565,-0.07141511434189377,-0.3072789219647011
14.329071998596191,0.9666410663755804,0.19192127174741308,-0.06513961519153968,-0.15661424561260687,-0.0013699254486709833,0.002450966974720359,0.9207320020068437,0.4021976271317904,-0.07158669946160359,-0.30664728165221083
14.37807297706604,0.9666917964039881,0.19163050157297853,-0.06535172063297628,-0.1565687978910343,-0.0031988597474992275,0.001840393990278244,0.9212109535001218,0.4016736699704572,-0.07214280778313348,-0.306445273798495
14.47682499885559,0.9668719727563562,0.19127025263380443,-0.06515093076953261,-0.1559794952562419,0.0015276758931577206,0.0056032161228358746,0.9199262855108827,0.40084023406911096,-0.07208841531391996,-0.3052409000427722
14.572171926498413,0.9665902613655423,0.1921937281884349,-0.06402397556054858,-0.15705315739033446,0.0024753364268690348,-0.000631467264611274,0.9189753459068015,0.40243015037531954,-0.06895999847599713,-0.3080764952065435
14.61020803451538,0.9663794956598427,0.1927422137325159,-0.0634624819589323,-0.15790369044863398,0.0025892010889947414,-0.0013205306604504585,0.9180137077928521,0.40342008637128257,-0.06723197188503861,-0.310178456990266
14.657778978347778,0.9663130269351307,0.19285025525411462,-0.06295252304293204,-0.15838202533842383,0.003253995906561613,-0.0040087406523525715,0.9166924422606826,0.40350963365179515,-0.06591311691834946,-0.31143145973086694
14.678723931312561,0.9664213424137248,0.19245453200392668,-0.0627833737149742,-0.15826936404008116,0.0009144670912064612,0.00030528646311722696,0.9178833225159906,0.40264991289848917,-0.06573142685035795,-0.31123524236687705
14.715651988983154,0.9666093553148243,0.19179842696833105,-0.06284770296497949,-0.1578920974538958,-0.0030114660039544106,-0.0024631861597299576,0.9205112629570067,0.40132088617045597,-0.06623898818782777,-0.31035514271542725
14.762400031089783,0.9667272743290043,0.19142780830222997,-0.06332636076464934,-0.1574274997311512,-0.002130192471668124,0.004382070153951645,0.9208970628678799,0.4006919617282014,-0.06756575873473453,-0.309131978583673
14.800465941429138,0.9667140111907989,0.19120627646340257,-0.0640715500153293,-0.15747685802198788,-0.004168462939560413,0.0037034540437161922,0.9198246076703072,0.40048297438480246,-0.0691815512399974,-0.30891487556455616
14.857947945594788,0.9666396950350183,0.19102233100896768,-0.06489409110807012,-0.1578190456842544,-0.0038855974562466145,0.00015698082279413939,0.920586118940264,0.4003954904174832,-0.0708203933431158,-0.30929913361643174
14.8834810256958,0.9666373091384379,0.19064163809690868,-0.06559709039966698,-0.1580031483239144,-0.0036211246624588966,-0.0019433225970715284,0.9242548174224794,0.399862544496527,-0.07233772478583192,-0.30938272714821335
14.942688941955566,0.9667078137354453,0.19038577550355482,-0.06592634010692788,-0.15774315241664646,5.154457176104188e-05,-0.005815976765006781,0.9260909780859947,0.39943045233537333,-0.0732231074645357,-0.308672423760403
14.98312795162201,0.9667198710401468,0.19067496211204263,-0.0661451298419405,-0.1572275086840659,0.0073560308665037155,0.007537907920777798,0.9275222141295671,0.4000432930901488,-0.07381910949389989,-0.307484892660253
15.009557008743286,0.9666791609735348,0.1909893649655818,-0.06559353499030371,-0.15732765216242156,0.0035695387050509453,0.00992946233600378,0.915998499840498,0.4005123881133117,-0.07251743595850985,-0.3079466449859138
15.06245493888855,0.9666123369263803,0.19091222571196903,-0.06501884145584898,-0.1580681633780291,0.005163601599633694,0.002452738815918565,0.917035395745188,0.4002309413530037,-0.07100840330812551,-0.3097780491483171
15.09768295288086,0.9665165821087167,0.19076579216059691,-0.06451401578866779,-0.1590346858294268,0.005387738812714815,-0.0025730179622769356,0.920991767430678,0.3998460445232768,-0.0695702976113777,-0.31206322504452827
15.168223023414612,0.9664539970749474,0.19080649789526263,-0.06367870887005428,-0.15970123149126753,0.0036578683648258448,0.0012211458524689078,0.918453220045194,0.39970926541681656,-0.06750976041573722,-0.3138496020803398
15.211640000343323,0.9664880729285198,0.19072019701827636,-0.06331440401954344,-0.1597430700316926,0.004572335630655289,0.0015264323446899652,0.9184559478308074,0.3994217415412274,-0.06675281483481692,-0.3140860364486281
15.238335013389587,0.9664610143895886,0.19093133252538486,-0.0631843217691292,-0.15970618503725345,0.003430139273405075,0.0025992724113166332,0.9198484587250277,0.39980337654826187,-0.06642822276679435,-0.3140733295439552
15.286397933959961,0.9664055583666434,0.19133068129200384,-0.06324353802163153,-0.15954021482108596,1.839266042225063e-05,-0.0014461700338870287,0.91605707956478,0.40061621838759276,-0.06649833844142816,-0.31371505315619
15.337293982505798,0.9663748087391238,0.1918109261265509,-0.06373283456129367,-0.15895376172544676,0.0021521353628486395,-1.0447169188410044e-05,0.9186629178002477,0.40170006427899485,-0.0676326398752576,-0.31227489368231715
15.38815701007843,0.9663380337061419,0.19245461324467722,-0.06431678734408708,-0.15816234852721306,-0.002266000024974346,0.0006995105068199337,0.9179620985523798,0.4031278935262144,-0.06900748379273021,-0.3103605320852319
15.434538006782532,0.9662986319748137,0.193124695681278,-0.06496697925819135,-0.15731827738417056,-0.0006647949339821935,0.0026882102247327566,0.9183310960652307,0.4046241033201054,-0.07054082260083723,-0.30830316552549175
15.486501932144165,0.9662451397384537,0.19463399117292735,-0.06636416086685583,-0.15518913494534323,0.002446293132379651,-0.016638675704598427,0.9032910130918026,0.40794770724133195,-0.07397004483707754,-0.30319352358224133
15.547104954719543,0.9660653149185384,0.19706638726949188,-0.06814116941316478,-0.1524449283809326,-0.003070194274187088,-0.003942469134926796,0.917908200994134,0.41319070321094087,-0.07823071571493449,-0.2966144985309528
15.578902006149292,0.9655576035652176,0.20122555920052765,-0.07017633413709182,-0.14927199194525115,0.0030772949103266,0.015578055754303932,0.9149118745699525,0.4219502846600893,-0.08279165659901781,-0.2890243364551915
15.60906195640564,0.9649235606987436,0.20537182323092323,-0.0714893220988918,-0.14708549623811448,-0.0003309014718979597,0.01735040731728077,0.9130019545555115,0.43054519794904944,-0.08544094659929112,-0.2838422588609825
15.662593960762024,0.9642871987140903,0.20865944340180453,-0.07213296040450749,-0.14631557040277604,-0.003081444650888443,0.00696912407875061,0.9103356711566448,0.43733148811631317,-0.08626969960769099,-0.281989487382719
15.700973987579346,0.9638234764399813,0.21063844233252846,-0.07253911578036383,-0.1463347553691739,-0.0040285889990627766,-0.010820839554071426,0.9109907681122422,0.4414672898892827,-0.08658101311726987,-0.28191376862401046
15.726449012756348,0.963602277257081,0.21162631802237014,-0.07319337486881743,-0.14604017806491507,0.0009588694083504379,-0.01497611403465271,0.9066094532608986,0.4436351492923277,-0.08785316718824183,-0.2809981818461463
15.782915949821472,0.963610388569039,0.21179412432724834,-0.07333019058884616,-0.14567435056006806,0.0016966769471764565,0.0027458062395453453,0.902631679084152,0.443981881407076,-0.08827990496281334,-0.2801409026574849
15.817340016365051,0.963785594670282,0.2111159195322617,-0.07307704579772722,-0.14562657655235645,-0.00015420018462464213,-0.002236390020698309,0.9010143263731152,0.44252752451568195,-0.08794720555518888,-0.28013267369567973
15.87045693397522,0.9638846318552375,0.21053888200313828,-0.072883135321971,-0.14590323427549673,0.0009696034248918295,-0.0018630602862685919,0.9027653350494802,0.44132529761869116,-0.08755536742458385,-0.28080713261226464
15.939126968383789,0.963881756434232,0.21031997898354154,-0.07297438763528691,-0.14619253629768017,-0.0006647949339821935,0.0026882102247327566,0.9022473191143945,0.4409334315573945,-0.08766975203301038,-0.2813872243661467
15.963822960853577,0.9638903928288886,0.2102040412723133,-0.07322832803481398,-0.14617535876037793,-0.0018325260607525706,-0.004258203320205212,0.9062939044088125,0.44076963354348236,-0.08825337556658772,-0.28122628525485643
16.023620009422302,0.963827462549215,0.21044231758725584,-0.07328415078898692,-0.14621942055154558,-0.0005325793172232807,0.0027231399435549974,0.9090264327824116,0.44127347950830154,-0.0882857305836316,-0.28130437762878413
16.057420015335083,0.96379509500604,0.21063787876383466,-0.0729481522604781,-0.14631892808635577,-0.003959126770496368,0.0037714974023401737,0.9031385427806526,0.441582720119953,-0.08746418759186776,-0.2816865441538276
16.091449975967407,0.9638437459362672,0.21035739539564136,-0.07230551905926084,-0.14672028832317435,-0.001671183854341507,0.007443610113114119,0.9058247292414308,0.4408636480583353,-0.08597104425759611,-0.2828537908484294
16.143108010292053,0.9638758453576757,0.20988457602397737,-0.07119312325036292,-0.14772688936730827,-0.0021705280523747206,0.0014566171448677778,0.9041189732961357,0.439668618332387,-0.08323462678655148,-0.2855513472182271
16.177778959274292,0.9638628493001464,0.20938889855281725,-0.0702153005090041,-0.14897810029890698,0.0007199313840828836,-0.004856557119637728,0.9032834827085026,0.4384818708719781,-0.08067877038128861,-0.2887138647759593
16.208593010902405,0.9638390146807226,0.209012562518729,-0.06938003132416781,-0.15004829433505115,-0.0022547494154423475,-0.010212082415819168,0.9003587590996176,0.43755892920675243,-0.07848559892090408,-0.29141729789245496
16.26331400871277,0.9638347859163192,0.20880239204866285,-0.06894883832882719,-0.15056583194810969,0.0020495213102549314,-0.010232976637780666,0.901392804691568,0.43704569309826446,-0.07737641138300233,-0.2927348534965195
16.301708936691284,0.963872933026695,0.2086264896475261,-0.06889364140589424,-0.15059112607553712,0.00195759953930974,-0.005172290839254856,0.9048137984937057,0.43667453455085076,-0.0772979688751632,-0.2928065618136124
16.41344702243805,0.964047526348605,0.2082198905992732,-0.0690061560154458,-0.14998308237414493,0.001351532875560224,-0.0010047969408333302,0.9036078350618482,0.4358347375082615,-0.07794996729781152,-0.29140924677252833
16.48856794834137,0.9640709304530903,0.20803453719143689,-0.06951474702791104,-0.14985508842495884,0.0027801450341939926,0.00019368267385289073,0.9082384146749973,0.43559992201002096,-0.07915042766818499,-0.29088616884548585
16.53956699371338,0.9641009565699463,0.20803219258981387,-0.06939171906390917,-0.14972186552562752,0.001854468835517764,0.00862982589751482,0.9010008901823312,0.43554765163377906,-0.0789527535828976,-0.29065281147065186
16.569926023483276,0.9641906896996844,0.2077020122505233,-0.06922991283398801,-0.14967777079527542,0.0008996662800200284,0.0053990865126252174,0.9016281452495605,0.4348264976470145,-0.07872450796348852,-0.2906156902184297
16.62294292449951,0.9642542208371053,0.2074224047186585,-0.06922782577400016,-0.14965693122101476,0.0024753364268690348,-0.000631467264611274,0.9054172561736777,0.43425724884239475,-0.078811057300051,-0.290557866675047
16.65805196762085,0.964247969498095,0.20759863371443105,-0.06952244929887359,-0.14931630895681336,0.0,0.0,0.9041388034820557,0.43467405926317776,-0.07955185547607656,-0.28968889098453066
16.70212197303772,0.9642565915249054,0.20787117513636177,-0.06986868769105521,-0.14871840370778838,-0.00022772920783609152,0.0013781266752630472,0.90518094424624,0.43527946245043203,-0.08049933833473945,-0.2882398348147448
16.741968035697937,0.9642809316514189,0.2080832180714326,-0.07027195410089895,-0.14807227550799346,-0.0025560075882822275,-0.005219439510256052,0.9027804045472294,0.43577380429098594,-0.08161018467334658,-0.2866558615734069
16.78227400779724,0.9643103110985864,0.208319056599753,-0.07068219098404101,-0.14735254201145845,0.0005141450092196465,0.0008931930642575026,0.9079871452413499,0.43631087209735864,-0.0827658212252459,-0.28490862349037793
16.823791027069092,0.9643491255723065,0.20841261596415578,-0.07095573321262347,-0.14683396761463127,-0.0033898036926984787,0.00032618080149404705,0.9021641229628585,0.43653557571503043,-0.08357360603020436,-0.2836563545881231
16.882277011871338,0.9644039797430964,0.2083302274670591,-0.07123839263546602,-0.14645284414049953,-0.0029159942641854286,-0.0017060794634744525,0.9070773832499981,0.4364171309242618,-0.08438394055760444,-0.28269207499221277
16.89737892150879,0.9644621273064306,0.20821896594583333,-0.07141709959515297,-0.14614090814693864,-0.0021153916604816914,-0.0007117295172065496,0.9076460334472358,0.4362156577083808,-0.0849467857894371,-0.2819258427884462
16.93899095058441,0.9645080577249914,0.20815618007138026,-0.07135126322779771,-0.14595940378747949,-0.002379864454269409,0.0013885737862437963,0.9041555534349754,0.43605333081112324,-0.08491097399953511,-0.2815590030471502
16.982592940330505,0.9645478013442451,0.2079755743217981,-0.07122135642583806,-0.1460175419405955,9.547194349579513e-05,0.0007571065798401833,0.9053932961542159,0.43565454763060885,-0.0846556213000214,-0.28173903580957443
17.028170943260193,0.9645559071528942,0.20787703726997078,-0.07106842607757353,-0.146178965087157,-0.0015057330019772053,-0.0012315930798649788,0.9044649091083556,0.43542465082343584,-0.0842788435690019,-0.2821574792286961
17.05034303665161,0.9645387940859659,0.20795902565317007,-0.07100244077138433,-0.14620742076905852,-0.002361471764743328,-5.7596073020249605e-05,0.9016903945012018,0.43557442773065097,-0.08410150600461785,-0.28225311071789055
17.104210019111633,0.96453015993163,0.2080962205279858,-0.07106351493401265,-0.1460392555346942,0.0008006024872884154,0.000994349829852581,0.9038187488913536,0.43585573495085805,-0.08427468772299945,-0.281864042948461
17.14475703239441,0.9644632177542404,0.2085369017583386,-0.07113384675240048,-0.14581828829011342,0.0010502745863050222,0.003987846430391073,0.9046427783323452,0.43675087876965923,-0.08440918473045035,-0.2813671311869999
17.182917952537537,0.964386878489663,0.20892471977899796,-0.07111441317830033,-0.1457775200673522,-0.000892524141818285,0.004066336899995804,0.9053183421492577,0.43752873135365283,-0.08427994737481816,-0.28130218898427256
17.21477198600769,0.9643036196504259,0.20919716884774026,-0.07106845472630045,-0.14595992136056601,0.000304808490909636,0.0008251499384641647,0.9057809817604721,0.438084316145695,-0.08401796892610681,-0.2817313925748599
17.257702946662903,0.9642729222558968,0.20931303515563168,-0.070878514622756,-0.14608938063057877,-0.0018325260607525706,-0.004258203320205212,0.9077187534421682,0.43827593347888594,-0.0835171778744301,-0.282106619975108
17.299997925758362,0.9642014710541055,0.2095562300301413,-0.07103098739222963,-0.14613793726529833,0.005237088538706303,0.0010083854431286454,0.910320308059454,0.438817716303071,-0.08375183858435324,-0.28215081807910986
17.327996969223022,0.9641619671401898,0.20967236822461596,-0.07053856557695588,-0.1464703595277973,-0.0016160057857632637,0.00310510047711432,0.8987193484790623,0.43893964089395254,-0.08250563518301185,-0.2831100955927108
17.37339496612549,0.964155802115841,0.20945835808384547,-0.07038040135236373,-0.14689235721294888,0.0009144670912064612,0.00030528646311722696,0.9021919229417108,0.4384953718431603,-0.0820229944411244,-0.28409450549661097
17.42495894432068,0.964129450647948,0.20931650796037238,-0.07035177096886766,-0.14728044418481404,-0.0005177368875592947,-0.004540822934359312,0.9027805125806481,0.4382321110594353,-0.0818137200208471,-0.28494737307935675
17.498330950737,0.9641703313665623,0.20927502332037723,-0.07094712262883093,-0.146785400686179,0.0024018073454499245,0.002983049489557743,0.9039216712117195,0.4382787607558734,-0.08333725042513034,-0.28358930801985444
17.531095027923584,0.9642590265038071,0.20899047470370374,-0.07113003416077687,-0.14651964592921288,0.002093407092615962,-0.0014897305518388748,0.905777279753238,0.4377313415575144,-0.08393624432564081,-0.28291370677854677
17.58112597465515,0.9643256401600069,0.20876145825383952,-0.07120202818419473,-0.14637244709439945,0.0019060134654864669,0.002813849365338683,0.9071610528044403,0.43727460873221996,-0.08422501392705137,-0.28255061343799737
17.61632800102234,0.9643722908459439,0.20856396842107586,-0.07113400730379818,-0.14638012963011682,-0.003713004756718874,0.0009472009260207415,0.901306371903047,0.43685490636669877,-0.0841309942522718,-0.28259133684871546
17.65280795097351,0.9644424404663426,0.20828678743629778,-0.07114811590595348,-0.1463054120366411,2.1942949388176203e-05,0.004371623508632183,0.9056854331865907,0.4362900344778279,-0.0842742727765653,-0.282411390160212
17.70313000679016,0.9644827156423409,0.2080675638917722,-0.07111011084585082,-0.146370262648729,-0.00018739368533715606,0.004303580150008202,0.9045153772458434,0.435839918239486,-0.08422288137407974,-0.28256175927539534
17.740607023239136,0.964481403391607,0.20801235951523828,-0.07096145704463393,-0.146529522237329,0.0017150696367025375,0.0012996362056583166,0.9037618720321916,0.43569878063412526,-0.08384425556896144,-0.28297517109794507
17.77731192111969,0.9644782108648706,0.20798119436776047,-0.07084172817485249,-0.14665247095518508,-0.00011386460391804576,0.0006890633376315236,0.9041330582113005,0.4356115175029443,-0.08353820591538179,-0.2832970185487782
17.824542999267578,0.964512678599343,0.20790893283610754,-0.07066915158714686,-0.14661158592615478,0.00011386460391804576,-0.0006890633376315236,0.9028768771677278,0.43541138255180983,-0.08320964417876003,-0.2832851163317869
17.8595609664917,0.9646296614820438,0.20754719438885727,-0.07062566111475652,-0.1463752465274137,-0.0019427987281233072,7.849041139706969e-05,0.9048661638516933,0.43464458202575823,-0.08333128046197641,-0.2827766913147451
17.898505926132202,0.9647491077505562,0.20710341381389605,-0.07069083338817897,-0.14618532717176774,-0.0008593307575210929,-0.0024736332707107067,0.9065757091157138,0.4337468125407099,-0.083684914197253,-0.2823163211248643
17.943145036697388,0.964823854506873,0.2068331346345701,-0.07079532444720645,-0.14602393516874,0.00032320115133188665,-0.000621020095422864,0.9050969287054613,0.4332147138492652,-0.08406006905720213,-0.2819069693417425
17.97808301448822,0.9648577106230132,0.20678456035456844,-0.07097536192688703,-0.1457812435120539,-0.00022772920783609152,0.0013781266752630472,0.9057703745784238,0.43314684506327095,-0.08457352145187694,-0.28129457993472345
18.017709970474243,0.964874747072517,0.2067986713803287,-0.07113531126905381,-0.1455703854958311,-0.00011386460391804576,0.0006890633376315236,0.9050307041616179,0.4332029388370144,-0.0850115807009605,-0.28076298937475264
18.06273102760315,0.964866464371986,0.20691652833091062,-0.07124232753615078,-0.14540561575294544,0.0006867378833703697,0.0016834131674841046,0.905429600737989,0.4334582202921154,-0.0852861893377676,-0.2803596470663306
18.097052931785583,0.9648510649571426,0.20701512055512272,-0.07141673851808411,-0.1452816188655166,-0.002460535615682602,-0.004462332930415869,0.9053886975161731,0.4336972265029441,-0.08569055383245933,-0.2800130681925737
18.14848494529724,0.9647940960881163,0.20731830652794622,-0.07174990073923113,-0.14506322381958392,0.00709155760705471,0.009638211689889431,0.9091669907793403,0.43438820074482004,-0.0864231054625218,-0.27939474162071354
18.18259596824646,0.9648301801778554,0.20716459618166636,-0.0713626986267648,-0.14523423658404502,-0.0016160057857632637,0.00310510047711432,0.9005760927684605,0.43398082504853297,-0.08555685526316394,-0.2799402236990098
18.218583941459656,0.9648432562860527,0.20682522488290297,-0.07128763478061298,-0.1456673350719583,0.0012192756403237581,0.0011304364306852221,0.907536503393203,0.4333091367720865,-0.08528296029562538,-0.2809045858637688
18.251106023788452,0.9648143990434261,0.2067098064935066,-0.07132532241708035,-0.146002754721607,-0.003375002881512046,-0.004767619073390961,0.90582305053249,0.4331154174446512,-0.08523501519235817,-0.2816123482520703
18.301896929740906,0.9648149700897803,0.2067673821752562,-0.07151128832009362,-0.14582709991209453,-0.000591265968978405,-0.0009263065876439214,0.905103201221209,0.4332702341507753,-0.08569978516447406,-0.28114687715656783
18.33824396133423,0.9648644666520321,0.20673325612072196,-0.07152744576160522,-0.1455391146311677,-7.352902321144938e-05,0.003614516695961356,0.9048206954612397,0.4331800299758279,-0.08588119049696234,-0.28051207686071317
18.378234028816223,0.9648556386042924,0.20673798979258945,-0.0716237272588636,-0.14554367736148957,0.002229214645922184,0.002192829269915819,0.909402942750603,0.43321767048536763,-0.08608314767061863,-0.280477817708952
18.439039945602417,0.9648217321392342,0.20680597840375042,-0.07139801075844932,-0.14578296119398554,-0.0021705280523747206,0.0014566171448677778,0.9066261830739677,0.43331202905882815,-0.08546852803596575,-0.2811044479388257
18.471436977386475,0.9647951103716337,0.2068545671682445,-0.0711965414123777,-0.1459882201694291,-0.0011421963572502136,0.0010728401830419898,0.9058051977772266,0.4333706816333982,-0.08492716409428867,-0.2816453018614845
18.495646953582764,0.9647963687726399,0.2067729386471738,-0.07098163786158745,-0.14620010165189942,-1.839266042225063e-05,0.0014461700338870287,0.907141596544534,0.4331617165428126,-0.08439008729380819,-0.28220198623261006
18.544844031333923,0.9647827397374644,0.2067106122945754,-0.0707635802615143,-0.1464835206553447,0.001924406155012548,0.001367679564282298,0.9062611117260531,0.4329969580603389,-0.08380693212934245,-0.28291624845067004
18.576416969299316,0.964762205241129,0.20666513641922324,-0.07048353192599574,-0.1468173804617785,0.002038270700722933,0.0006786161684431136,0.9056952485116199,0.4328524039799718,-0.08306295414574098,-0.2837692269289026
18.615847945213318,0.9647734814334592,0.20651825435998572,-0.07027230689878622,-0.14705133890713348,0.00011386460391804576,-0.0006890633376315236,0.9041413897066377,0.43251325273523744,-0.08254208777338884,-0.28436917904232467
18.667132019996643,0.9648018013785122,0.20640494447248744,-0.07017547342683317,-0.14707105274859394,0.0,0.0,0.9049447774887085,0.43225701253740395,-0.08235805675979814,-0.2844519533428822
18.70461595058441,0.9648307008772791,0.2063686426233642,-0.07021889881385664,-0.14691171408206624,-0.0009144670912064612,-0.00030528646311722696,0.9051181814284064,0.43218242953334185,-0.0825367643357286,-0.28408416746845844
18.733067989349365,0.9648660382763662,0.20633469729979292,-0.07027833616049026,-0.14669850405523036,0.0006867378833703697,0.0016834131674841046,0.9061833610758185,0.4321125842188045,-0.08277456879786271,-0.2835920390414444
18.798326015472412,0.9648795312250491,0.20635635620818324,-0.0702268825442467,-0.14660387563898314,-0.0005509303882718086,0.001999146770685911,0.9056547014042735,0.432133482570353,-0.08270387770506599,-0.28341079781186695
18.819679021835327,0.9648802660073154,0.2063539553108491,-0.07018942859253499,-0.1466203301175613,0.0,0.0,0.9049829244613647,0.4321191645920374,-0.0826168523455323,-0.28346365899264203
18.854972004890442,0.9648737696521006,0.20635159115904605,-0.07017348700139561,-0.1466741876485494,0.0007602669065818191,-0.0019311035284772515,0.9056684814277105,0.4321143640366938,-0.08255787315216262,-0.28358796498523237
18.901811957359314,0.9648458918917849,0.206481808845993,-0.07018691750250938,-0.1466675429199007,-0.004116876982152462,-0.004282685462385416,0.902926011942327,0.43238173716091205,-0.08255321663560786,-0.28357250270765605
18.93902599811554,0.9647761299166233,0.20681930732247839,-0.07039709381176855,-0.14655004236206315,-0.0013734757667407393,-0.0033668263349682093,0.9021210093051195,0.4331170407536812,-0.08296312381977204,-0.28323373262428025
18.979143023490906,0.9647441886491783,0.20703625249682395,-0.07037646083053631,-0.1464641668970692,0.00019812770187854767,0.008809473365545273,0.8983003823086619,0.43354372441493766,-0.08289955414471425,-0.28306503636189434
19.025009989738464,0.9647764080756941,0.20673991641223288,-0.07021935297777396,-0.14674552145320854,0.0,0.0,0.9046556353569031,0.432921253235707,-0.08251290353865975,-0.2837374290830624
19.060959935188293,0.964726782483851,0.2067545781097395,-0.0702487829520057,-0.1470369101064171,0.0001506083062849939,-0.001411240198649466,0.908879408147186,0.43298442913676977,-0.0824324328513566,-0.2843581317716345
19.10062003135681,0.9646737596557099,0.20696922222413483,-0.07025519075561489,-0.14707972617265586,-0.002515672007575631,-0.0022939860355108976,0.9035576275200583,0.4334252478687506,-0.08236532666238777,-0.28445699670897523
19.14284598827362,0.9646890992998833,0.20702689408672514,-0.07039850255360267,-0.14682920477876052,0.0024018073454499245,0.002983049489557743,0.9059485867619514,0.43356244219402434,-0.0827746264275079,-0.2838484358859014
19.178242921829224,0.9647390295527085,0.20687731909563806,-0.07036660682924577,-0.14672696547318323,-0.0024018073454499245,-0.002983049489557743,0.9029198214411736,0.43324104369379995,-0.0827973514375457,-0.2836347984839573
19.217585921287537,0.9647564095180151,0.20683150477232842,-0.07030321681086667,-0.14670821749335636,0.00249727931804955,0.0037401558365672827,0.9081830990035087,0.43312817169054313,-0.08268394060626034,-0.2836214061250328
19.263082027435303,0.9647449771030453,0.2068581763925861,-0.07006693349080717,-0.14685851513382847,-0.0019795424304902554,0.0008006672142073512,0.9006677460856736,0.4331264814456009,-0.08210070984354383,-0.28405803434196275
19.2983900308609,0.9647432181740357,0.20676665105288128,-0.07004748920921493,-0.14700806627205085,0.0005728732794523239,0.0023724765051156282,0.9065738080535084,0.4329479145546982,-0.08201352903268704,-0.2843884639447697
19.337783932685852,0.9647581907437915,0.20666786755557895,-0.06987263032803688,-0.14713212931284678,0.0007822097977623343,0.002440519630908966,0.9080678750760853,0.4327072328741508,-0.0816092374546924,-0.2847345705460921
19.399730920791626,0.9647531950249909,0.20669685249900158,-0.06965220440133132,-0.1472285667038288,0.0009548026719130576,0.00323073985055089,0.9045420528855175,0.43270991222761923,-0.08108503394872822,-0.28504676380240473
19.420071959495544,0.9647487232366825,0.20668724566387298,-0.06952371675997426,-0.14733178692225155,0.0015057330019772053,0.0012315930798649788,0.903901508776471,0.4326615926659737,-0.08076452835189982,-0.28532983141405577
19.457304000854492,0.9647748392363191,0.20658113485594085,-0.0695392784755894,-0.1473021336243721,0.0,0.0,0.904977023601532,0.43244847497413175,-0.08084184490753828,-0.28525368512465693
19.507216930389404,0.9648091778427718,0.20653277746403723,-0.06971980410160696,-0.14705941556885965,0.0004186730948276818,0.0001360864844173193,0.9076934796757996,0.43238262951796147,-0.08135610500903741,-0.28464102691306425
19.547544956207275,0.9648249918712761,0.20657119944940114,-0.06990921368329418,-0.1468122617710142,-0.0012963964836671948,-0.0011635497212409973,0.9072375553660095,0.4324947787382059,-0.08186701856138037,-0.28401829775950027
19.57911992073059,0.9648781799292291,0.20645285444608194,-0.06999714003923602,-0.146587024615631,-0.00011386460391804576,0.0006890633376315236,0.9056377774686553,0.43226116207395376,-0.08219505113648011,-0.28348345992269847
19.629137992858887,0.964950281133543,0.2061489368288295,-0.06994414815699909,-0.14656510913281673,-0.003867204999551177,-0.0012891890946775675,0.9044799599796534,0.4316276112789254,-0.082177581435333,-0.2834479771078319
19.657532930374146,0.9650598385144344,0.2056326473751755,-0.0699648792420645,-0.1465588203034946,0.0006464023026637733,-0.001242040190845728,0.9070018737111241,0.43058619204458404,-0.08236920600401886,-0.2834043878248733
19.706861972808838,0.9651406060594763,0.20526825958756703,-0.06999050551373609,-0.1465260893742282,0.0015608693938702345,-0.0009367536986246705,0.9071385331917554,0.42985207054304453,-0.08254120514526862,-0.2833073876342079
19.760504961013794,0.9652123701920947,0.20490864590126215,-0.07011245513528634,-0.1464978796873335,0.001939206849783659,-0.0037261205725371838,0.9102783827111125,0.42915587314534764,-0.08291474601046456,-0.28317670461153616
19.8023339509964,0.9652573705628646,0.20473700966857694,-0.07043417708621018,-0.14628733937475402,0.008880156092345715,0.0073233311995863914,0.9115093280561268,0.42888282859361804,-0.08374726440788334,-0.28256673874088184
19.817222952842712,0.9653972216922103,0.2042324087111702,-0.07021000143582726,-0.1461774437896869,0.0019279980333521962,0.005015309900045395,0.9033751070965081,0.42778567554100483,-0.08346190909927204,-0.2824114681198037
19.870077967643738,0.9655256493376138,0.2035683386201605,-0.07032071846676897,-0.1462022738161575,0.0024018073454499245,0.002983049489557743,0.9088105633854866,0.4264737782412756,-0.08387035748210592,-0.2823911303288904
19.899783968925476,0.9656098739982136,0.2031381483163842,-0.07069489216356312,-0.14606351477464824,0.0010099390055984259,0.0010623930720612407,0.9093645608518273,0.42569767737260616,-0.08485078592945104,-0.2819061384430801
19.937768936157227,0.9656961433398612,0.20289576805034978,-0.07118283899236677,-0.1455927778319715,0.0021521353628486395,-1.0447169188410044e-05,0.9079021336510777,0.4253051169854269,-0.08617596018471603,-0.28065739504562304
19.998875975608826,0.9658337415095857,0.20259241982759435,-0.07161970771515219,-0.14488685228202353,0.0015057330019772053,0.0012315930798649788,0.9066616806667298,0.4247518532074239,-0.08751802194072558,-0.2789210122795758
20.018471002578735,0.9659790293210048,0.20220877529299325,-0.07218010953829689,-0.14417359141057293,0.0049322801642119884,0.00018323550466448069,0.9126326004043221,0.42406831764095965,-0.08914657073193745,-0.2771124631519815
20.142252922058105,0.9663434042563164,0.2011780022884785,-0.07352774918824762,-0.14248322658331672,0.0005325376987457275,-0.0005529768532142043,0.9102863643784076,0.4221986326898481,-0.09307230871953481,-0.2728235335288485
20.19263994693756,0.9665066913807373,0.20069893186791748,-0.07396376977798085,-0.14182405736094067,0.0004186730948276818,0.0001360864844173193,0.9112253529019654,0.4212849667847782,-0.09442962022310236,-0.2711932985587572
20.2396639585495,0.9666720071642202,0.20023200029201446,-0.07424145307567523,-0.14121089386716737,0.00036353670293465257,0.0023044331464916468,0.9093193001463078,0.4203551853461106,-0.0954237437236706,-0.2697355734521588
20.267781019210815,0.9668291361529247,0.19967124326213048,-0.07448385111836109,-0.1408010602818247,-0.002266000024974346,0.0006995105068199337,0.9094800595776178,0.4192447886348363,-0.09627169281942834,-0.2687335876505561
20.31787598133087,0.9669671936109498,0.19908418914562245,-0.07472451958070235,-0.1405561382417662,-0.00420879852026701,0.0007780009182170033,0.9108702831435949,0.41809659690681983,-0.09704562902798139,-0.2680899960908742
20.344504952430725,0.9671012444112136,0.1985838661289458,-0.07493109122826457,-0.14023201410909528,-0.003522060811519623,0.002461414085701108,0.9124158902559429,0.41710667155603326,-0.0977600353360036,-0.2672928278720041
20.406551957130432,0.9672098680516017,0.19820950283033453,-0.07507739102494275,-0.13993395326312208,-0.0033678608015179634,0.004697803873568773,0.911834329366684,0.4163578252935046,-0.09830152440332861,-0.2665808824618118
20.437593936920166,0.9672641668563072,0.19806121389922746,-0.07505921418011023,-0.13977812793572944,-0.0011018607765436172,0.003998293541371822,0.9116442855447531,0.4160365779277904,-0.09837125114305217,-0.26625111288488335
20.483994960784912,0.967247305016282,0.1981849769087156,-0.07494038058592027,-0.13978324390840638,-0.0010615251958370209,0.00692374724894762,0.9114296874031425,0.416255552220491,-0.09808521806779914,-0.26631570626662804
20.5068279504776,0.9671897792160489,0.1983826419870531,-0.07469436445689848,-0.14003190999460172,-0.0017482630209997296,0.00524033373221755,0.9101369825657457,0.4166141247914082,-0.09739932811869426,-0.26696309520214734
20.55829393863678,0.9670957593450522,0.19866080793806215,-0.07441116318405584,-0.14043752164172854,-0.0005325376987457275,0.0005529768532142043,0.9079493905883282,0.4171410214886595,-0.09654200314164539,-0.2679672907094418
20.597772002220154,0.9669894889346285,0.19893088882453477,-0.07438110934684317,-0.14080182775961397,-0.006041283253580332,-0.005650365259498358,0.9061010666191578,0.41771627698428354,-0.09624274261840184,-0.26877090961870614
20.644811987876892,0.9669122211246897,0.19923590726749268,-0.07445782728853569,-0.14086090539959364,0.004271076992154121,0.006519075483083725,0.9106394225964323,0.418361336972557,-0.09630056763919602,-0.26886862232911624
20.67801296710968,0.9669325165312357,0.1991259949002782,-0.07409743852320631,-0.1410669623905008,-0.00026447296841070056,0.0021003035362809896,0.9061551964841783,0.418059896654812,-0.09546863797867418,-0.2694720201707546
20.720757007598877,0.9669266291529531,0.19898891635424495,-0.07407940871272008,-0.14130992730757597,-0.00011386460391804576,0.0006890633376315236,0.9105138546437956,0.4178010982116008,-0.09535458096185233,-0.2700029613702829
20.74179196357727,0.9669005254501779,0.19900062127407092,-0.07433043296069225,-0.14134002033367174,0.003441347973421216,-0.006142157595604658,0.917919279076159,0.4178970148920099,-0.09587117827466672,-0.2699570487982
20.79731297492981,0.9668585060554983,0.19944008795595147,-0.07430146978918907,-0.14102296173299728,0.00045186642091721296,-0.006403883453458548,0.9117544698528945,0.41874818740939557,-0.0958415822303097,-0.26929096758084053
20.824142932891846,0.9669226466618988,0.19962884765309544,-0.07425683958154755,-0.1403381901753469,-0.001252469141036272,0.005409534089267254,0.9063928690738976,0.4190506718303732,-0.09601222173794309,-0.26783348279292307
20.90109097957611,0.967089121309555,0.19887122333836937,-0.07421525620079143,-0.14028855558168696,0.006967000663280487,-0.004955941811203957,0.9104612126830034,0.41749894609268484,-0.09613999680778829,-0.2677347691367385
20.94226598739624,0.9670212969598654,0.19905135955027067,-0.07475443824690188,-0.14021458151664665,0.004903195425868034,-0.013653811067342758,0.9116075988858938,0.4180040173053794,-0.09727376462339837,-0.2673384851117963
20.98581302165985,0.9669528077760337,0.19983610243852298,-0.07561333363734403,-0.1391056190306288,0.0098058320581913,-0.0011128125479444861,0.9212357634678483,0.41971547492747063,-0.09941016417711998,-0.2645685840004449
21.02369797229767,0.9667830668532467,0.2012088308757448,-0.07649431098520623,-0.13781954045483433,-0.002335895784199238,0.005791494157165289,0.8927078703418374,0.4226025211571018,-0.10153764357292386,-0.2614034529737439
21.066107988357544,0.9667260658767679,0.20153381048681715,-0.07820424653565425,-0.13678049238787604,-0.0021230087149888277,0.011677331291139126,0.8985853604972363,0.4236051363211623,-0.10558330611657647,-0.25838732141498727
21.123345017433167,0.9669738393381647,0.20035409944232632,-0.08007976068646329,-0.13567257016440068,-0.012460945174098015,-0.006341200787574053,0.9070221461588517,0.4215810690112972,-0.11037324873276531,-0.25515341460813196
21.15782392024994,0.9674492624199192,0.19864203653202997,-0.08178372112025872,-0.1337707536212457,-0.005288716405630112,0.009147916920483112,0.9129572939127684,0.41832747949117627,-0.11527119712984897,-0.250306368803312
21.2045179605484,0.9678940057519773,0.19708847354211145,-0.08292233439293349,-0.13214040602294086,-0.0038713132962584496,0.01908782683312893,0.9109996682964265,0.4152692230290103,-0.11878454258202951,-0.24631693767510682
21.2513929605484,0.9681367962425594,0.1958214368227305,-0.0838459579716344,-0.13166208864907789,-0.0041613210923969746,0.0131688779219985,0.9106282381108031,0.4128729753995557,-0.12124399490780458,-0.24491153886544012
21.278501987457275,0.9681675751426561,0.19503465561890304,-0.08479962303429542,-0.13199213988663494,-0.0017334622098132968,0.00014653365360572934,0.9118982176296413,0.41155855509851147,-0.12329589258718188,-0.2452258412683938
21.313905954360962,0.9681290637626208,0.19477534932733037,-0.0854216205031446,-0.1322567646349032,0.0007234815857373178,0.0009612361900508404,0.9156675785779953,0.4112228463140708,-0.12455652216575044,-0.2455309533719175
21.363114953041077,0.9681234888494051,0.1949057572975902,-0.08537119848774782,-0.13213781941873037,-0.0006316015496850014,-0.003851759945973754,0.910435633151792,0.41145924984011295,-0.1244740905088226,-0.24529314565057
21.397215008735657,0.9681694191763949,0.1951537645435292,-0.0852668379246759,-0.13150158526767114,0.0012560609029605985,-0.0017619036370888352,0.9070857723709196,0.4118543039232037,-0.1244830789678987,-0.2439625186976287
21.42363202571869,0.9682103165644398,0.1954176807266019,-0.08543390304720484,-0.13069714898471785,-0.000976745504885912,-0.007602363359183073,0.9067573819775134,0.41232741165451203,-0.1251420025136461,-0.24215034303314154
21.517777919769287,0.9679365188889927,0.19700337848679195,-0.08611075929365117,-0.1298976764771461,0.0033346673008054495,0.0018421659478917718,0.9062457313993946,0.4156063137692566,-0.1266058671168994,-0.2400785323874513
21.56012499332428,0.9678101602629663,0.19735109388880573,-0.08628654658062684,-0.13019507990611462,0.007157944608479738,-0.0034417284186929464,0.9118828303180635,0.4163937210510281,-0.12677225451617335,-0.24062929215346537
21.612349033355713,0.9677726033781252,0.19737554015572364,-0.08642346220360347,-0.13034578937922847,0.0011166614713147283,-0.009092094376683235,0.9081294848583639,0.4164967181592079,-0.12699044759661604,-0.24089230645452567
21.636894941329956,0.9678012088033858,0.19714838375623855,-0.08701794038319864,-0.1300812900641442,-0.006834743544459343,0.002820708556100726,0.9031330621801317,0.4161474337801883,-0.12842478553098607,-0.24006677908963014
21.681118965148926,0.9680278114169998,0.196181205995211,-0.08778209733654734,-0.12934241897730203,-0.0036578683648258448,-0.0012211458524689078,0.9082369769457728,0.4142741910040243,-0.13058799618664338,-0.23817473310339612
21.730389952659607,0.9681800800446432,0.19549283504222098,-0.0885571127291311,-0.12871521558847787,-1.839266042225063e-05,0.0014461700338870287,0.9106088583357632,0.4129813745446353,-0.1326618561894704,-0.23651243321891635
21.75748896598816,0.9682041866719214,0.19528836326954085,-0.08917766362484454,-0.12841477923453037,-0.006776057183742523,0.006470154970884323,0.9113349535036832,0.41267531080660697,-0.13415941536161255,-0.2356024354147005
21.800818920135498,0.9681994518407032,0.19519151589367278,-0.08943911750191735,-0.12841587171101038,-0.011939657852053642,0.004017415922135115,0.912931886035949,0.412542090727951,-0.13473521889789664,-0.23549425895197895
21.848062992095947,0.9681606290877788,0.19527915064095377,-0.0895140993998881,-0.12852349469425156,-0.0010064303642138839,0.006925563327968121,0.921504900790751,0.41275283901405124,-0.13482892214385672,-0.23568868423723843
21.87779998779297,0.9680078359259371,0.19577661492245263,-0.08891084556692903,-0.12933366851195144,-0.0034010540693998337,0.011237774044275284,0.9095924724824727,0.4137272898483459,-0.13307918240679467,-0.23767470194747686
21.916881918907166,0.9678761249189538,0.19558265325948468,-0.08830353800833944,-0.13101754422421247,-0.0024753364268690348,0.000631467264611274,0.9068493916420266,0.41341414965790646,-0.13106964388400388,-0.2415730427261541
21.96252202987671,0.9678808259407046,0.19457129639102075,-0.08788530481182852,-0.1327587914144782,-0.004006604198366404,-0.008619379252195358,0.9112805873155594,0.41149365814494376,-0.12961493294374424,-0.24554062694258313
21.99986696243286,0.9679720278990965,0.19338534734329402,-0.08767610879099237,-0.13395912103939214,0.0006060667219571769,-0.004167493432760239,0.911343855317682,0.4091975352694764,-0.12889309986290515,-0.24825493300668
22.03832495212555,0.968161717397134,0.19192807506699633,-0.08752682378585386,-0.13477955246751921,0.007730817887932062,-0.0010692519135773182,0.9175659301690757,0.4063165707053414,-0.12853398608389818,-0.25013265446000776
22.11747097969055,0.9685353370311433,0.18905804475890503,-0.08655363821051663,-0.1367650942981977,0.002681122859939933,-0.006381217390298843,0.9106399128213525,0.40051629240439585,-0.1262472385189658,-0.2549031226197668
22.158453941345215,0.9687032674905358,0.18807547779828962,-0.08617982565456965,-0.13716616176728666,0.0007786595961079001,-0.0033772734459489584,0.9123518010601401,0.3984829200728034,-0.12550700254156333,-0.25595076927093124
22.208552956581116,0.9687611638778397,0.1877412179469726,-0.08606271492578968,-0.13728859282041866,0.0015057330019772053,0.0012315930798649788,0.9137006911914796,0.39779196489614127,-0.12528317442993334,-0.25627241955237634
22.23681402206421,0.9687225072682769,0.1878382558025271,-0.08593019706583832,-0.1375119612498472,0.0019831343088299036,0.0028469630051404238,0.9135194752598181,0.3979823281857249,-0.12488439209709253,-0.25680391643718437
22.27741503715515,0.968669194006226,0.18789369658842467,-0.08589369838898357,-0.1378335041370461,-0.0036210829857736826,-0.004113486036658287,0.9098018957301974,0.3981261506948733,-0.12465587653940562,-0.25750682561396193
22.322651028633118,0.9686763719491197,0.1878426293762737,-0.086132834814532,-0.13770365425283537,0.003834011498838663,0.007829159498214722,0.9157115357229486,0.39806899679176777,-0.12522947656272257,-0.2571295814944369
22.358026027679443,0.9687155166479897,0.18768118425276495,-0.08595668566045403,-0.1377584675197446,0.0007086808327585459,0.006055036094039679,0.9185602744109929,0.3977032533494783,-0.12487053221174077,-0.2573257077982954
22.396556973457336,0.9686097943116599,0.188113512314781,-0.08562930891692427,-0.1381155037188882,-0.0012708618305623531,0.006855703890323639,0.9144147900515236,0.39853725759102177,-0.12392407121986104,-0.2582162820715433
22.44870400428772,0.9685017186310368,0.18856034207385156,-0.08553793760723592,-0.13832054963607224,-0.010430291295051575,0.006726476363837719,0.9029316548258066,0.3994430964576721,-0.1235382267080142,-0.2586823500532466
22.4772469997406,0.9685156830216385,0.1883969754897222,-0.08611458320081954,-0.13808769665006398,-0.005828396417200565,0.0002354713506065309,0.9171632076613605,0.3992349597413511,-0.12489706214661508,-0.25794456348010614
22.521193027496338,0.9685801464155523,0.18828426648457203,-0.0862798160759684,-0.1376853980122149,-0.006096461322158575,-0.0013118552742525935,0.918708493001759,0.398998545416205,-0.12544654650577364,-0.2570156198228389
22.567909955978394,0.9685629340407899,0.18828846425012816,-0.08639639376411169,-0.13772749361997805,0.006353750359266996,-0.008083708584308624,0.9233867507427931,0.39904306897341674,-0.12567408617020578,-0.25705666524850196
22.597262024879456,0.9685937355913193,0.18843090387058914,-0.08606927055639754,-0.13752073167556794,0.005244789179414511,-0.015721000730991364,0.9141509984619915,0.3992187062018045,-0.12503836367382073,-0.2567469099229864
22.638232946395874,0.9686337054073962,0.18920512833430236,-0.08575133843881785,-0.13637025290393606,0.001975992228835821,-0.006618460640311241,0.9123241920024157,0.40055426300484326,-0.12468617497068145,-0.2543912676365143
22.697909951210022,0.9686690758607029,0.1903756874085153,-0.08568293728538252,-0.13452037147388707,-0.005788018926978111,0.0009907615603879094,0.9052765434607863,0.402667934065812,-0.12508206491716908,-0.2504165103112746
22.718302011489868,0.9686911728707556,0.19143391882024688,-0.08602712670450627,-0.13262645254711428,-0.0018365930300205946,0.013948651030659676,0.9100916609168053,0.40465281707705636,-0.1264069725001763,-0.24617069779665246
22.762506008148193,0.9687479199434751,0.19180934892439366,-0.08649430212168363,-0.13135933853265067,0.0058206962421536446,0.016493914648890495,0.9167336486279964,0.40536421403191386,-0.1278734537576215,-0.24323717468462705
22.80383002758026,0.9687696695204611,0.19189986801370273,-0.08644738105321051,-0.13109780025922335,-0.0008485967409797013,0.010639420710504055,0.9089034136850387,0.4055015280404128,-0.12786945276100367,-0.24269268754869264
22.837710976600647,0.9688457098973802,0.1914397367845483,-0.08641226996532748,-0.1312314979910823,-0.0021669361740350723,0.005104247480630875,0.9090474951080978,0.4045783204215379,-0.12783454878112321,-0.24301161296114662
22.87659192085266,0.9689651166647577,0.19087382531422253,-0.08636159549582183,-0.13120734998043396,0.004873551893979311,-0.0012960480526089668,0.9199277833104134,0.40341632675284017,-0.1278586109391397,-0.24300240499984688
22.928213953971863,0.9690650867266568,0.19075701755783753,-0.08601061780416992,-0.1308696456152369,-0.002343079075217247,-0.0015037660486996174,0.9079663162119687,0.40304839864745173,-0.12728660689228607,-0.24243241683001662
22.960988998413086,0.9691549542254738,0.19075517745064383,-0.08609633193829841,-0.13014885347109073,0.004116876982152462,0.004282685462385416,0.9143517771735787,0.40297125708242726,-0.12778333526927307,-0.24085014140209018
22.998937010765076,0.9691682959426551,0.1910098236459907,-0.08618891921874443,-0.1296130602503273,-0.0006867378833703697,-0.0016834131674841046,0.9109638938680291,0.40343920407067557,-0.12815996769193208,-0.23965178377547056
23.04464101791382,0.9690075395979264,0.1916972270722517,-0.08650475323475605,-0.129589462885298,0.009600088000297546,0.0024667740799486637,0.9176353202201426,0.4049059594388971,-0.12869635835594934,-0.23943891488396643
23.077775955200195,0.96873678222197,0.19260011986742467,-0.0866212882536646,-0.13019583231939758,-0.011538819409906864,-0.020595138892531395,0.912903864402324,0.40684420455782894,-0.12848727670424323,-0.24065527014647153
23.11533296108246,0.9685806830208191,0.19337759269663224,-0.0873001230908173,-0.12975087384497103,0.0029787474777549505,-0.01285132858902216,0.9206436835229397,0.40852717334701727,-0.12996313432228643,-0.23937548311427473
23.16584801673889,0.9686486427097496,0.1937014307282499,-0.08728036171249999,-0.12877030575159543,-0.0077711534686386585,-0.0018562012119218707,0.9033153387717903,0.4090473953100683,-0.13028874135784052,-0.23726473345443513
23.197054028511047,0.9687933951986313,0.19325735493824606,-0.08768169961671636,-0.12807360153000732,-0.00887660589069128,-0.0015055380063131452,0.9099660975043662,0.4081503779259463,-0.1315417559798731,-0.23561283928462637
23.23941993713379,0.9689055444149249,0.19264591116125734,-0.088368556664169,-0.12767330642682279,-0.030941231176257133,-0.013961142860352993,0.909309230861254,0.40702158163185964,-0.13330259535690203,-0.2344831932695125
23.298139929771423,0.969272987649232,0.19146672349585328,-0.08935176970764759,-0.12596237467480337,-0.0015905541367828846,0.015464680269360542,0.9255743734538555,0.40462815382127926,-0.13637826221818275,-0.23044693028744614
23.31747603416443,0.9696385027872501,0.1904987458874284,-0.08940469958152038,-0.1245718343485229,0.0038559543900191784,0.01220078207552433,0.9151293854229152,0.40248334602408,-0.13728568238802857,-0.2274961485202826
23.358428955078125,0.9697874878550343,0.18995702869991543,-0.0893084968942464,-0.12430850863241749,0.002985414583235979,0.018468579277396202,0.9105005338788033,0.40132620092957266,-0.137300055155946,-0.2270029925443018
23.397308945655823,0.9699116440336935,0.1891253940281923,-0.08892598115738727,-0.12488058992868974,0.008938884362578392,0.00880261417478323,0.9150325662922114,0.3996327991415293,-0.13640170429268803,-0.22843515622044583
23.437523007392883,0.9699732228960272,0.18867478970057575,-0.08834740342700577,-0.12549292300883044,0.0012632030993700027,0.007703519891947508,0.9112156901974231,0.3986699439613512,-0.13499895224641517,-0.23001403760778122
23.47832703590393,0.9699841911423523,0.18849177742482426,-0.08788676001516194,-0.1260052166913393,0.001568011473864317,0.008528669364750385,0.9149255536030978,0.39826147712257304,-0.13383824227020166,-0.23131395504457247
23.59098792076111,0.9696291449802895,0.18990501562481335,-0.08629233944342242,-0.12770686711174142,-0.0010906101670116186,-0.006913300137966871,0.911393407965079,0.4009738410400812,-0.12943813881761462,-0.23556708071877705
23.650501012802124,0.9693693791950818,0.19104402532468484,-0.08583433521029936,-0.12828760416185384,-0.00172221171669662,-0.010765058919787407,0.9116719565936364,0.4032474888188177,-0.12797928831367877,-0.2369600519442426
23.69061303138733,0.9690788068912594,0.19240793866194733,-0.08548086317323991,-0.12867961081180923,-0.0019499408081173897,-0.009386932477355003,0.9121122095384635,0.40597663477442547,-0.12677367815408805,-0.2378999827639792
23.74074697494507,0.968820781341696,0.19361810722042117,-0.0850970444654518,-0.12906118116594056,-0.004807206802070141,-0.00961372908204794,0.9124583527445793,0.40838530870172424,-0.1255364956443839,-0.23884129353546413
23.838510990142822,0.9682556391147628,0.19541327259528213,-0.08415961986343831,-0.13119394512648735,0.005174810066819191,-0.00628869142383337,0.9152761492878199,0.4120651529408276,-0.12221001859253523,-0.24377785312874145
23.890898942947388,0.9680579674400086,0.1956020190178857,-0.08413931451864883,-0.13237894169371395,0.01304502785205841,-2.7753383619710803e-05,0.9185109063982964,0.4125915298054403,-0.12159418402514464,-0.24633155449362373
23.936092019081116,0.9681303974066092,0.19504677047556748,-0.08366579964520501,-0.1329669386094578,0.000892524141818285,-0.004066336899995804,0.9071815386414528,0.4114197251440964,-0.12044680485914909,-0.24781843646074847
24.033867955207825,0.968951830559588,0.1923784673389665,-0.08426731726856336,-0.13046805675816014,0.0006755290669389069,0.010424843057990074,0.9055592562071979,0.40584942038221733,-0.12341653806972566,-0.24226261250776637
24.07773995399475,0.9691650198486942,0.19170251468428734,-0.0847132438858715,-0.12958741608552768,0.0032682805322110653,0.014922105707228184,0.9116005393443629,0.40447729121207254,-0.12489393196330185,-0.2402035074923982
24.123286962509155,0.9693501134028286,0.1910364446770285,-0.08503838574218758,-0.128972103714594,0.005207487381994724,0.011195985600352287,0.9160850760526955,0.4031280503816148,-0.1259934109333536,-0.23876835469940605
24.157089948654175,0.9693679688043193,0.1910399208731656,-0.08504627916084836,-0.12882726475338818,0.0057180821895599365,0.006271385587751865,0.9155476102605462,0.4031182242447845,-0.12607263941676916,-0.23845427735635008
24.19750702381134,0.969223787345023,0.19169518076308947,-0.08479709611423536,-0.12910269338355868,-0.0017114777583628893,0.0023479938972741365,0.9066745480522513,0.40442055528717424,-0.12528581870862268,-0.2391278796096475
24.25227200984955,0.9690948914770452,0.1921526434056279,-0.08493317225018836,-0.12930069782829878,-0.0009144670912064612,-0.00030528646311722696,0.9118830105871893,0.4054062651290618,-0.12539132131067282,-0.2394780131259558
24.27687096595764,0.969037056070076,0.19227869969145664,-0.08531567614975297,-0.129294982536918,0.0005141450092196465,0.0008931930642575026,0.9162730253301561,0.4057545402606983,-0.1261793029104212,-0.2392965809799764
24.317932963371277,0.9690404756377591,0.19220171490743723,-0.08551099543237235,-0.1292551317116627,0.0015240840148180723,0.001955586252734065,0.9181558564305305,0.4056411397397273,-0.1266276986539283,-0.23912977470552796
24.367187023162842,0.9690357867251098,0.19220961506763207,-0.08528928864859087,-0.1294245266145287,0.0005325376987457275,-0.0005529768532142043,0.9136066411156207,0.4056249133148479,-0.1260808670010915,-0.23958846105567524
24.397253036499023,0.9689813965854593,0.1923330466432997,-0.08489788105584996,-0.1299048169026007,0.00032320115133188665,-0.000621020095422864,0.9122814937727526,0.4058409887079369,-0.1250125768293106,-0.24078350248266514
24.437608003616333,0.9689582491636243,0.1924297886504225,-0.0843538841493118,-0.130288233775222,-0.004899128340184689,-0.0045530423521995544,0.9168866649270058,0.4059519261812474,-0.12366841224824278,-0.24183763112459694
24.48274803161621,0.9689453411429961,0.1927648688781815,-0.08365160342353398,-0.13034150701672978,-0.005082930438220501,0.003398167435079813,0.912998519022949,0.40646388223511287,-0.12208216690545678,-0.24224418040249612
24.518290996551514,0.9689522126975186,0.1929980349913919,-0.08270294454953303,-0.13055138326932364,-2.6051129680126905e-05,0.016005393117666245,0.9124281056574546,0.406727274263826,-0.1199253596871383,-0.24309740958314516
24.557644963264465,0.968870027795543,0.19309565933421804,-0.08162872319313495,-0.13168755017635286,-0.000694396672770381,0.012875810265541077,0.908767695305869,0.40679527580393493,-0.11712235199833099,-0.24599878716619045
24.60160994529724,0.968697547379904,0.19307724099710727,-0.080751186393501,-0.13351194733043506,-0.005369346123188734,0.0011268480448052287,0.9075731439515948,0.4067530601805789,-0.11445875356024537,-0.2502973948348843
24.637082934379578,0.9685151451845329,0.19317391199883943,-0.08031046327389545,-0.13495324819486362,-0.003951468039304018,-0.010787726379930973,0.9171105329878628,0.4070042019656178,-0.11286462694951459,-0.253583520582169
24.67538595199585,0.9683778903133612,0.1938077659598745,-0.07972440392495733,-0.13537663998781688,0.0006464023026637733,-0.001242040190845728,0.9135267941746861,0.4081848440465268,-0.1112862795112216,-0.2547381515836686
24.722774982452393,0.9683424653236786,0.1943109642294795,-0.07892067565140516,-0.13537933576828107,0.0022695916704833508,0.0029481197707355022,0.9066375773400068,0.4089951669378371,-0.10946186626655101,-0.2550860329542209
24.758729934692383,0.9682454058344239,0.19470414703590733,-0.07867360989504991,-0.1356525663065527,0.005009401123970747,0.00021634888253174722,0.9110215238761157,0.40975797036601114,-0.10872324516220024,-0.2557774322274851
24.79747200012207,0.9680965597092727,0.19521543167697605,-0.07866268592712933,-0.13598541960956548,0.0026775309816002846,-0.010028847493231297,0.9135939856059849,0.4108281800032433,-0.10843037507197434,-0.2564944469619978
24.8755099773407,0.9679665853309339,0.19629489807953568,-0.07871149935319059,-0.1353270639758296,-0.0002496721572242677,-0.002993496600538492,0.909334366209805,0.41295469528686896,-0.10857431073626664,-0.25504671344625945
24.918161988258362,0.9679420173125797,0.19665986986741085,-0.07887258333699654,-0.1348788520049608,0.00468260794878006,-0.0028102612122893333,0.9138261282350868,0.41368607590776346,-0.10903277981491993,-0.2540073363063869
24.963266015052795,0.9679311549968561,0.19687916809778067,-0.07882512129676364,-0.13466430908214852,0.0012376682134345174,-0.000315733632305637,0.9105755352065898,0.4140941665819135,-0.10897738385918876,-0.2535639415670758
24.99974799156189,0.9679499925160493,0.19690261248540472,-0.07878844865602681,-0.13451593999732858,0.002952737733721733,0.00098390260245651,0.910939906782005,0.4141155181733736,-0.10896092754712623,-0.25326012522909463
25.037521958351135,0.9680132823299435,0.19682081527638445,-0.0787373276930818,-0.13420966299493953,-0.0004370657552499324,0.0013100834330543876,0.9101256690337323,0.4139020627581647,-0.10900952890822384,-0.2526233711768183
25.083364009857178,0.9680528591773578,0.19685652392788114,-0.0788353248816849,-0.13381350292916266,-0.0013111972948536277,0.003930250182747841,0.9100701099960133,0.4139550980496749,-0.10938825781836509,-0.2517263774743198
25.157124996185303,0.968102514079951,0.19711456765797386,-0.07922834467937917,-0.13283919464156338,-0.0008741315104998648,0.002620166866108775,0.9097408576635644,0.41446848567484657,-0.1106043433644808,-0.2494513777491368
25.203418970108032,0.968159924615491,0.19720551073286527,-0.07944318600675732,-0.13215567028764433,-0.0006647949339821935,0.0026882102247327566,0.9109643792035058,0.4146293117258682,-0.11134934165248542,-0.24788289354393536
25.2382869720459,0.9681918103671819,0.19736397444266285,-0.07973438908944916,-0.1315085144090813,-0.0013699254486709833,0.002450966974720359,0.9122656390536577,0.41494966724213045,-0.11222556579665086,-0.24635792108612425
25.277544021606445,0.968238105850519,0.19742893426788824,-0.07992662600724616,-0.13095244413538745,-0.0018473268719390035,0.0008355971076525748,0.9123069033958018,0.41506521491967835,-0.11287149660296672,-0.2450740766410756
25.32275092601776,0.9682889926821857,0.19739450475750986,-0.07995318998992634,-0.13061124701972965,-0.00011386460391804576,0.0006890633376315236,0.9099682933301665,0.4149622932545743,-0.11308993157185367,-0.2443279331938766
25.382377982139587,0.9683104917170959,0.19735264510825404,-0.07994154514690549,-0.1305224062154538,0.0021521353628486395,-1.0447169188410044e-05,0.9096920611336827,0.41486414038191527,-0.1131145885855158,-0.2441424425088084
25.402846932411194,0.9683202603579759,0.19726783675776172,-0.07999067762861958,-0.13054788852082197,0.0024717445485293865,-0.00427909754216671,0.9155030846595764,0.4147073608144335,-0.11322638771133896,-0.24417712790606821
25.44263792037964,0.9682981669165743,0.19741293116985628,-0.08021950391615223,-0.13035178383083793,0.005101281218230724,-0.002674174727872014,0.9155308548361063,0.41503577631987065,-0.11376983495847183,-0.24365112372886072
25.50255596637726,0.9683717770463608,0.19738270819843248,-0.07989856772414186,-0.1300470899591488,0.0006867378833703697,0.0016834131674841046,0.910522042773664,0.4148589401911894,-0.1132312892798431,-0.24313707728364653
25.542078971862793,0.9684633307719057,0.19707475316619416,-0.07974038049505518,-0.1299297699113391,-0.00022772920783609152,0.0013781266752630472,0.9109711182536557,0.4141813575574601,-0.11301551888620266,-0.24295974102824283
25.56821596622467,0.9685163896136118,0.19675461291995724,-0.07984758779459006,-0.12995355876438355,-0.00011386460391804576,0.0006890633376315236,0.9105064636678435,0.41356146966202395,-0.11330330886324717,-0.24296960082479982
25.625882983207703,0.9685866634814141,0.19637933529822632,-0.08009899594611207,-0.12984284308059987,-0.002952737733721733,-0.00098390260245651,0.9091421020566486,0.41284986144857333,-0.11397024242600214,-0.2426279453238803
25.657315015792847,0.968644735646353,0.1961125751073046,-0.08032950877109488,-0.1296704560465308,0.0004993443144485354,0.005986993201076984,0.9125964548438787,0.4123457385575102,-0.11459622315776849,-0.24216119239810338
25.684477925300598,0.9686694181733618,0.19592517389413916,-0.0804878721273793,-0.12967117878798026,0.0053361523896455765,0.00541312200948596,0.9154758579097688,0.41200501104876636,-0.11497355209929763,-0.24209725527042145
25.742726922035217,0.968627997426091,0.1960357259235827,-0.08022139105656642,-0.12997758512183533,0.002515672007575631,0.0022939860355108976,0.9111672350554727,0.41219926120715167,-0.11424540059386576,-0.24287098840778054
25.777768969535828,0.9685919035101799,0.19612855226040188,-0.08001515714318176,-0.130233733668489,5.8728212025016546e-05,0.0014792834408581257,0.9073815424926579,0.41236630860299095,-0.11367161175493355,-0.24351079054138108
25.823670983314514,0.9685510645946122,0.19626894486528468,-0.07986555223428007,-0.13041749289609736,0.0021337426733225584,0.0014357229229062796,0.913298053201288,0.41263518168411845,-0.11324003812656197,-0.24396925760353483
25.883177995681763,0.9683607028743327,0.19688052540150036,-0.07942582028655243,-0.1311760125779571,0.003257546341046691,0.001809052424505353,0.9141650055535138,0.4138532465610738,-0.11182765241024888,-0.2457851646574547
25.93363094329834,0.9683002615006129,0.197106410143346,-0.07891443871620381,-0.1315904343433896,0.0009879961144179106,-0.0033092303201556206,0.9091570684686303,0.4142299739366639,-0.1105024254245103,-0.2468995101297164
25.98225498199463,0.9682347409523389,0.19734072273923906,-0.0785504448094829,-0.13193942266360328,-0.0014873403124511242,-0.0026777631137520075,0.9080364488763735,0.41465270176971625,-0.10951768648016347,-0.2478087270932494
26.080822944641113,0.9683786192725942,0.19698045397355696,-0.07883582452961586,-0.13124912493576293,-0.0015205338131636381,0.003862207056954503,0.9086089447373524,0.41391586723680185,-0.11051757496745959,-0.24620070300830332
26.14445996284485,0.9683813037261764,0.1969280678982594,-0.07906112985455604,-0.13117290748681384,-0.00045545841567218304,0.0027562533505260944,0.9126675988081843,0.4138576395119495,-0.11104283959926939,-0.2459382020786495
26.17750096321106,0.9683958299214519,0.1967669874953812,-0.07930702655478097,-0.13115836359514885,-0.0011273955460637808,-0.004020960070192814,0.9138574048411101,0.413591096396205,-0.11160838744989146,-0.24580112963717274
